instructs.started,instructs.stopped,participant,session,date,expName,psychopyVersion,OS,frameRate,trial.started,trial.stopped,mouse.x,mouse.y,mouse.leftButton,mouse.midButton,mouse.rightButton,mouse.time,mouse.clicked_name,feedback.started,feedback.stopped,trials.thisRepN,trials.thisTrialN,trials.thisN,trials.thisIndex,trials.ran,targetX,cueOri,congr,corrAns,finish.started,valid_av,invalid_av,trials.order,rt_zscore
,,0,1,2025-12-14,posner,2023.2.2,Win32,100.0,37.3571,38.9755,0.305031447,-0.017819706,1.0,0.0,0.0,0.6096,target,38.9755,39.9755,0.0,1.0,1.0,13.0,1.0,0.35,0.0,0.0,right,,,,,0.22722457728964449
,,0,1,2025-12-14,posner,2023.2.2,Win32,100.0,39.9762,41.9254,-0.404612159,-0.01572327,1.0,0.0,0.0,0.9394,target,41.9254,42.9253,0.0,2.0,2.0,8.0,1.0,-0.35,180.0,0.0,left,,,,,0.8546366760627387
,,0,1,2025-12-14,posner,2023.2.2,Win32,100.0,42.9259,44.5757,0.348008386,0.007337526,1.0,0.0,0.0,0.6399,target,44.5757,45.5756,0.0,3.0,3.0,3.0,1.0,0.35,180.0,1.0,right,,,,,0.12782980477121753
,,0,1,2025-12-14,posner,2023.2.2,Win32,100.0,45.5763,47.0856,0.341719078,-0.030398323,1.0,0.0,0.0,0.4994,target,47.0856,48.0856,0.0,4.0,4.0,1.0,1.0,0.35,180.0,1.0,right,,,,,0.588719756548082
,,0,1,2025-12-14,posner,2023.2.2,Win32,100.0,48.0862,50.1255,0.295597484,0.018867925,1.0,0.0,0.0,1.03,target,50.1257,51.1256,0.0,5.0,5.0,11.0,1.0,0.35,0.0,0.0,right,,,,,1.1518368869594215
,,0,1,2025-12-14,posner,2023.2.2,Win32,100.0,51.1263,52.5754,-0.253668763,0.01048218,1.0,0.0,0.0,0.4396,target,52.5754,53.5757,0.0,6.0,6.0,0.0,1.0,-0.35,0.0,1.0,left,,,,,0.7848850171620072
,,0,1,2025-12-14,posner,2023.2.2,Win32,100.0,53.5763,55.0357,-0.318658281,0.016771488,1.0,0.0,0.0,0.4499,target,55.0358,56.0359,0.0,7.0,7.0,6.0,1.0,-0.35,0.0,1.0,left,,,,,0.7510973552167992
,,0,1,2025-12-14,posner,2023.2.2,Win32,100.0,56.0365,57.6055,0.362683438,-0.023060797,1.0,0.0,0.0,0.5597,target,57.6055,58.6056,0.0,8.0,8.0,9.0,1.0,0.35,0.0,0.0,right,,,,,0.39091431816982636
,,0,1,2025-12-14,posner,2023.2.2,Win32,100.0,58.6062,60.0255,-0.373165618,-0.011530398,1.0,0.0,0.0,0.4097,target,60.0255,61.0261,0.0,9.0,9.0,2.0,1.0,-0.35,0.0,1.0,left,,,,,0.8829676474689697
,,0,1,2025-12-14,posner,2023.2.2,Win32,100.0,61.0265,62.5955,-0.382599581,0.037735849,1.0,0.0,0.0,0.5599,target,62.5956,63.5953,0.0,10.0,10.0,4.0,1.0,-0.35,0.0,1.0,left,,,,,0.3902582470640943
,,0,1,2025-12-14,posner,2023.2.2,Win32,100.0,63.5955,65.1955,-0.36687631,-0.038784067,1.0,0.0,0.0,0.5897,target,65.1955,66.1956,0.0,11.0,11.0,12.0,1.0,-0.35,180.0,0.0,left,,,,,0.2925036523099976
,,0,1,2025-12-14,posner,2023.2.2,Win32,100.0,66.1961,67.7554,-0.396226415,-0.030398323,1.0,0.0,0.0,0.5498,target,67.7555,68.7556,0.0,12.0,12.0,10.0,1.0,-0.35,180.0,0.0,left,,,,,0.42338983790356993
,,0,1,2025-12-14,posner,2023.2.2,Win32,100.0,68.7563,70.3154,0.253668763,0.002096436,1.0,0.0,0.0,0.5498,target,70.3154,71.3159,0.0,13.0,13.0,5.0,1.0,0.35,180.0,1.0,right,,,,,0.42338983790356993
,,0,1,2025-12-20,posner,2023.2.2,MacIntel,62.26650062,10.334,12.416,0.376576577,0.009009009,1.0,0.0,0.0,1.066,target,12.416,13.417,0.0,1.0,1.0,5.0,1.0,0.35,180.0,1.0,right,,,,,1.269929685991216
,,0,1,2025-12-20,posner,2023.2.2,MacIntel,62.26650062,13.418,16.018,-0.31981982,0.007207207,1.0,0.0,0.0,1.584,target,16.018,17.017,0.0,2.0,2.0,2.0,1.0,-0.35,0.0,1.0,left,,,,,2.9691538498375913
,,0,1,2025-12-20,posner,2023.2.2,MacIntel,62.26650062,17.018,19.083,-0.316216216,-0.013513514,1.0,0.0,0.0,1.05,target,19.083,20.084,0.0,3.0,3.0,8.0,1.0,-0.35,180.0,0.0,left,,,,,1.2174439975326405
,,0,1,2025-12-20,posner,2023.2.2,MacIntel,62.26650062,20.085,21.917,-0.326126126,-0.006306306,1.0,0.0,0.0,0.817,target,21.917,22.917,0.0,4.0,4.0,4.0,1.0,-0.35,0.0,1.0,left,,,,,0.45312115935463754
,,0,1,2025-12-20,posner,2023.2.2,MacIntel,62.26650062,22.918,24.85,0.32972973,0.007207207,1.0,0.0,0.0,0.916,target,24.85,25.85,0.0,5.0,5.0,13.0,1.0,0.35,0.0,0.0,right,,,,,0.7778763566920724
,,111,1,2025-12-16,posner,2023.2.2,Win32,59.88023952,21.6942,23.3246,0.43195427,-0.082179603,1.0,0.0,0.0,0.617,target,23.3247,24.3255,0.0,0.0,0.0,13.0,1.0,0.35,0.0,0.0,right,,,,,0.20294994637755354
,,111,1,2025-12-16,posner,2023.2.2,Win32,59.88023952,24.3265,26.1771,-0.290722481,0.025854707,1.0,0.0,0.0,0.8502,target,26.1772,27.1794,0.0,1.0,1.0,0.0,1.0,-0.35,0.0,1.0,left,,,,,0.5620289629061813
,,111,1,2025-12-16,posner,2023.2.2,Win32,59.88023952,27.1806,28.8131,-0.409245831,0.035294688,1.0,0.0,0.0,0.6171,target,28.8131,29.8147,0.0,2.0,2.0,8.0,1.0,-0.35,180.0,0.0,left,,,,,0.20262191082468747
,,111,1,2025-12-16,posner,2023.2.2,Win32,59.88023952,29.8154,31.7493,0.361679279,0.006975014,1.0,0.0,0.0,0.9175,target,31.7493,32.7507,0.0,3.0,3.0,7.0,1.0,0.35,180.0,1.0,right,,,,,0.7827968899850638
,,111,1,2025-12-16,posner,2023.2.2,Win32,59.88023952,32.7516,34.2852,-0.4344188,0.060467758,1.0,0.0,0.0,0.5332,target,34.2852,35.2862,0.0,4.0,4.0,4.0,1.0,-0.35,0.0,1.0,left,,,,,0.47784373967934163
,,111,1,2025-12-16,posner,2023.2.2,Win32,59.88023952,35.2866,37.3049,0.396292262,-0.039175664,1.0,0.0,0.0,1.017,target,37.3049,38.3059,0.0,5.0,5.0,3.0,1.0,0.35,180.0,1.0,right,,,,,1.1091922650868287
,,111,1,2025-12-16,posner,2023.2.2,Win32,59.88023952,38.3062,40.1577,-0.420783492,0.035294688,1.0,0.0,0.0,0.8503,target,40.1577,41.1593,0.0,6.0,6.0,2.0,1.0,-0.35,0.0,1.0,left,,,,,0.5623569984590474
,,111,1,2025-12-16,posner,2023.2.2,Win32,59.88023952,41.1598,43.0272,0.378461392,-0.01819819,1.0,0.0,0.0,0.8669,target,43.0272,44.0289,0.0,7.0,7.0,1.0,1.0,0.35,180.0,1.0,right,,,,,0.6168109002348194
,,111,1,2025-12-16,posner,2023.2.2,Win32,59.88023952,44.0294,45.78,0.395243372,-0.006660428,1.0,0.0,0.0,0.75,target,45.78,46.7809,0.0,8.0,8.0,11.0,1.0,0.35,0.0,0.0,right,,,,,0.23333733893435366
,,111,1,2025-12-16,posner,2023.2.2,Win32,59.88023952,46.7812,48.5327,0.33650631,-0.015051417,1.0,0.0,0.0,0.7498,target,48.5327,49.5352,0.0,9.0,9.0,9.0,1.0,0.35,0.0,0.0,right,,,,,0.23268126782862153
,,111,1,2025-12-16,posner,2023.2.2,Win32,59.88023952,49.536,51.152,-0.309602443,0.011170509,1.0,0.0,0.0,0.6005,target,51.152,52.153,0.0,10.0,10.0,6.0,1.0,-0.35,0.0,1.0,left,,,,,0.2570758126004592
,,111,1,2025-12-16,posner,2023.2.2,Win32,59.88023952,52.1533,53.8547,0.309235695,-0.000367152,1.0,0.0,0.0,0.7005,target,53.8548,54.8557,0.0,11.0,11.0,5.0,1.0,0.35,180.0,1.0,right,,,,,0.07095974026563637
,,111,1,2025-12-16,posner,2023.2.2,Win32,59.88023952,54.856,56.5407,-0.295967001,0.01326829,1.0,0.0,0.0,0.6839,target,56.5408,57.5421,0.0,12.0,12.0,10.0,1.0,-0.35,180.0,0.0,left,,,,,0.016505838489864297
,,111,1,2025-12-16,posner,2023.2.2,Win32,59.88023952,57.5425,59.1934,-0.32953096,-0.012953804,1.0,0.0,0.0,0.6506,target,59.1934,60.1965,0.0,13.0,13.0,12.0,1.0,-0.35,180.0,0.0,left,,,,,0.09273000061454553
,,1,1,2025-12-17,posner,2023.2.2,Win32,59.88023952,6.2615,7.7565,-0.284316512,0.037553966,1.0,0.0,0.0,0.4832,target,7.7567,8.7573,0.0,0.0,0.0,0.0,1.0,-0.35,0.0,1.0,left,,,,,0.6418615161123894
,,1,1,2025-12-17,posner,2023.2.2,Win32,59.88023952,8.7582,10.3391,0.416690612,-0.039568345,1.0,0.0,0.0,0.5663,target,10.3391,11.3384,0.0,1.0,1.0,7.0,1.0,0.35,180.0,1.0,right,,,,,0.3692639716806639
,,1,1,2025-12-17,posner,2023.2.2,Win32,59.88023952,11.339,12.7357,-0.346474803,-0.011942472,1.0,0.0,0.0,0.3835,target,12.7359,13.7356,0.0,2.0,2.0,2.0,1.0,-0.35,0.0,1.0,left,,,,,0.9689129623198868
,,1,1,2025-12-19,posner,2023.2.2,Win32,59.88023952,1.126,2.6917,-0.339612487,0.02744887,1.0,0.0,0.0,0.5504,target,2.6917,3.6927,0.0,0.0,0.0,4.0,1.0,-0.35,0.0,1.0,left,,,,,0.42142162458637317
,,1,1,2025-12-19,posner,2023.2.2,Win32,59.88023952,3.6932,5.2441,0.372981701,0.001614639,1.0,0.0,0.0,0.5504,target,5.2441,6.2451,0.0,1.0,1.0,1.0,1.0,0.35,180.0,1.0,right,,,,,0.42142162458637317
,,1,1,2025-12-19,posner,2023.2.2,Win32,59.88023952,6.2454,7.8467,-0.354682454,0.039289559,1.0,0.0,0.0,0.6005,target,7.8467,8.848,0.0,2.0,2.0,0.0,1.0,-0.35,0.0,1.0,left,,,,,0.2570758126004592
,,1,1,2025-12-19,posner,2023.2.2,Win32,59.88023952,8.8483,10.5494,0.255651238,0.012378902,1.0,0.0,0.0,0.7005,target,10.5494,11.5507,0.0,3.0,3.0,3.0,1.0,0.35,180.0,1.0,right,,,,,0.07095974026563637
,,1,1,2025-12-19,posner,2023.2.2,Win32,59.88023952,11.5513,13.3522,0.43649085,0.01883746,1.0,0.0,0.0,0.8004,target,13.3522,14.3532,0.0,4.0,4.0,5.0,1.0,0.35,180.0,1.0,right,,,,,0.39866725757886584
,,1,1,2025-12-19,posner,2023.2.2,Win32,59.88023952,14.3536,16.0716,-0.326695371,0.005920344,1.0,0.0,0.0,0.7174,target,16.0717,17.073,0.0,5.0,5.0,10.0,1.0,-0.35,180.0,0.0,left,,,,,0.1263977487000066
,,1,1,2025-12-19,posner,2023.2.2,Win32,59.88023952,17.0733,18.9579,-0.290096878,-0.016684607,1.0,0.0,0.0,0.8842,target,18.9579,19.9588,0.0,6.0,6.0,12.0,1.0,-0.35,180.0,0.0,left,,,,,0.6735610508806539
,,1,1,2025-12-19,posner,2023.2.2,Win32,59.88023952,19.959,21.527,-0.311625404,-0.01022605,1.0,0.0,0.0,0.5671,target,21.527,22.5283,0.0,7.0,7.0,6.0,1.0,-0.35,0.0,1.0,left,,,,,0.36663968725773505
,,1,1,2025-12-19,posner,2023.2.2,Win32,59.88023952,22.529,24.1463,0.357911733,-0.024219591,1.0,0.0,0.0,0.6005,target,24.1463,25.1476,0.0,8.0,8.0,9.0,1.0,0.35,0.0,0.0,right,,,,,0.2570758126004592
,,1,1,2025-12-19,posner,2023.2.2,Win32,59.88023952,25.148,26.8657,-0.297631862,0.003767492,1.0,0.0,0.0,0.7166,target,26.8657,27.8673,0.0,9.0,9.0,8.0,1.0,-0.35,180.0,0.0,left,,,,,0.12377346427707776
,,1,1,2025-12-19,posner,2023.2.2,Win32,59.88023952,27.8687,29.4684,0.324542519,-0.01883746,1.0,0.0,0.0,0.5839,target,29.4684,30.4696,0.0,10.0,10.0,11.0,1.0,0.35,0.0,0.0,right,,,,,0.3115297143762312
,,1,1,2025-12-19,posner,2023.2.2,Win32,59.88023952,30.4701,32.2212,0.324542519,-0.026372443,1.0,0.0,0.0,0.7505,target,32.2212,33.222,0.0,11.0,11.0,13.0,1.0,0.35,0.0,0.0,right,,,,,0.23497751669868394
,,1,1,2025-12-19,posner,2023.2.2,Win32,59.88023952,33.2223,34.9238,0.335306781,0.013455328,1.0,0.0,0.0,0.7006,target,34.9239,35.925,0.0,12.0,12.0,7.0,1.0,0.35,180.0,1.0,right,,,,,0.07128777581850243
,,1,1,2025-12-19,posner,2023.2.2,Win32,59.88023952,35.9254,37.4429,-0.34714747,-0.004843918,1.0,0.0,0.0,0.517,target,37.4429,38.4443,0.0,13.0,13.0,2.0,1.0,-0.35,0.0,1.0,left,,,,,0.5309854992436491
,,1,1,2025-12-21,posner,2023.2.2,Win32,59.88023952,16.1546,18.042,-0.383575884,-0.01975052,1.0,0.0,0.0,0.8823,target,18.0425,19.0413,0.0,0.0,0.0,6.0,1.0,-0.35,0.0,1.0,left,,,,,0.667328375376198
,,1,1,2025-12-21,posner,2023.2.2,Win32,59.88023952,19.0422,20.7741,0.326403326,-0.008316008,1.0,0.0,0.0,0.7162,target,20.7741,21.7746,0.0,1.0,1.0,13.0,1.0,0.35,0.0,0.0,right,,,,,0.12246132206561317
,,1,1,2025-12-21,posner,2023.2.2,Win32,59.88023952,21.7749,23.4413,-0.422037422,-0.028066528,1.0,0.0,0.0,0.6499,target,23.4415,24.4413,0.0,2.0,2.0,4.0,1.0,-0.35,0.0,1.0,left,,,,,0.09502624948460794
,,1,1,2025-12-21,posner,2023.2.2,Win32,59.88023952,24.4422,26.1241,-0.361746362,0.016632017,1.0,0.0,0.0,0.6662,target,26.1241,27.1246,0.0,3.0,3.0,8.0,1.0,-0.35,180.0,0.0,left,,,,,0.04155645436743442
,,1,1,2025-12-21,posner,2023.2.2,Win32,59.88023952,27.1249,28.8909,-0.358627859,-0.022869023,1.0,0.0,0.0,0.7498,target,28.891,29.8913,0.0,4.0,4.0,2.0,1.0,-0.35,0.0,1.0,left,,,,,0.23268126782862153
,,1,1,2025-12-21,posner,2023.2.2,Win32,59.88023952,29.8916,31.525,0.354469854,-0.061330561,1.0,0.0,0.0,0.6169,target,31.5252,32.5248,0.0,5.0,5.0,1.0,1.0,0.35,180.0,1.0,right,,,,,0.2032779819304196
,,1,1,2025-12-21,posner,2023.2.2,Win32,59.88023952,32.5259,34.3911,-0.349272349,-0.01975052,1.0,0.0,0.0,0.8492,target,34.3912,35.3912,0.0,6.0,6.0,0.0,1.0,-0.35,0.0,1.0,left,,,,,0.5587486073775204
,,1,1,2025-12-21,posner,2023.2.2,Win32,59.88023952,35.3919,37.1912,-0.384615385,-0.034303534,1.0,0.0,0.0,0.7831,target,37.1913,38.1911,0.0,7.0,7.0,10.0,1.0,-0.35,180.0,0.0,left,,,,,0.34191710693303135
,,1,1,2025-12-21,posner,2023.2.2,Win32,59.88023952,38.1915,39.9411,0.392931393,-0.027027027,1.0,0.0,0.0,0.7331,target,39.9413,40.9409,0.0,8.0,8.0,9.0,1.0,0.35,0.0,0.0,right,,,,,0.1778993304999834
,,1,1,2025-12-21,posner,2023.2.2,Win32,59.88023952,40.9412,42.7082,0.266112266,-0.001039501,1.0,0.0,0.0,0.7504,target,42.7083,43.7079,0.0,9.0,9.0,11.0,1.0,0.35,0.0,0.0,right,,,,,0.2346494811458179
,,1,1,2025-12-21,posner,2023.2.2,Win32,59.88023952,43.7084,45.3415,0.29002079,0.001039501,1.0,0.0,0.0,0.6169,target,45.3415,46.3419,0.0,10.0,10.0,7.0,1.0,0.35,180.0,1.0,right,,,,,0.2032779819304196
,,1,1,2025-12-21,posner,2023.2.2,Win32,59.88023952,46.3427,48.4411,-0.294178794,-0.025987526,1.0,0.0,0.0,1.0832,target,48.4411,49.4409,0.0,11.0,11.0,12.0,1.0,-0.35,180.0,0.0,left,,,,,1.3263518010841842
,,1,1,2025-12-21,posner,2023.2.2,Win32,59.88023952,49.4412,51.2745,0.328482328,-0.013513514,1.0,0.0,0.0,0.8166,target,51.2745,52.2744,0.0,12.0,12.0,3.0,1.0,0.35,180.0,1.0,right,,,,,0.4518090171431733
,,1,1,2025-12-21,posner,2023.2.2,Win32,59.88023952,52.2749,54.1419,0.274428274,0.008316008,1.0,0.0,0.0,0.8501,target,54.1421,55.1413,0.0,13.0,13.0,5.0,1.0,0.35,180.0,1.0,right,,,,,0.5617009273533152
,,1,1,2025-12-14,posner,2023.2.2,Win32,59.88023952,3.0723,4.6026,0.367599569,0.033907427,1.0,0.0,0.0,0.5173,target,4.603,5.6031,0.0,0.0,0.0,3.0,1.0,0.35,180.0,1.0,right,,,,,0.5300013925850509
,,1,1,2025-12-14,posner,2023.2.2,Win32,59.88023952,5.6041,7.3711,-0.351453175,-0.000538213,1.0,0.0,0.0,0.7505,target,7.3711,8.3724,0.0,1.0,1.0,12.0,1.0,-0.35,180.0,0.0,left,,,,,0.23497751669868394
,,99,1,2025-12-15,posner,2023.2.2,Win32,59.88023952,8.8892,10.688,0.315513627,-0.033542977,1.0,0.0,0.0,0.7834,target,10.688,11.6884,0.0,1.0,1.0,11.0,1.0,0.35,0.0,0.0,right,,,,,0.34290121359162956
,,99,1,2025-12-15,posner,2023.2.2,Win32,59.88023952,11.6889,13.8881,-0.387840671,-0.025157233,1.0,0.0,0.0,1.1835,target,13.8882,14.888,0.0,2.0,2.0,2.0,1.0,-0.35,0.0,1.0,left,,,,,1.655371460608878
,,99,1,2025-12-15,posner,2023.2.2,Win32,59.88023952,14.8886,16.6044,0.324947589,-0.022012579,1.0,0.0,0.0,0.6998,target,16.6045,17.6045,0.0,3.0,3.0,1.0,1.0,0.35,180.0,1.0,right,,,,,0.06866349139557358
,,99,1,2025-12-15,posner,2023.2.2,Win32,59.88023952,17.6051,19.3379,0.307127883,-0.003144654,1.0,0.0,0.0,0.7165,target,19.3381,20.3378,0.0,4.0,4.0,7.0,1.0,0.35,180.0,1.0,right,,,,,0.12344542872421171
,,99,1,2025-12-15,posner,2023.2.2,Win32,59.88023952,20.3382,22.1212,-0.35115304,0.008385744,1.0,0.0,0.0,0.7661,target,22.1214,23.1214,0.0,5.0,5.0,4.0,1.0,-0.35,0.0,1.0,left,,,,,0.28615106294579506
,,99,1,2025-12-15,posner,2023.2.2,Win32,59.88023952,23.1218,25.1544,-0.379454927,0.012578616,1.0,0.0,0.0,1.0164,target,25.1544,26.1544,0.0,6.0,6.0,10.0,1.0,-0.35,180.0,0.0,left,,,,,1.1072240517696323
,,99,1,2025-12-15,posner,2023.2.2,Win32,59.88023952,26.1551,27.8545,0.363731656,-0.008385744,1.0,0.0,0.0,0.6833,target,27.8546,28.8543,0.0,7.0,7.0,3.0,1.0,0.35,180.0,1.0,right,,,,,0.014537625172667941
,,99,1,2025-12-15,posner,2023.2.2,Win32,59.88023952,28.8547,30.5878,-0.336477987,-0.01048218,1.0,0.0,0.0,0.7166,target,30.5878,31.5879,0.0,8.0,8.0,0.0,1.0,-0.35,0.0,1.0,left,,,,,0.12377346427707776
,,99,1,2025-12-15,posner,2023.2.2,Win32,59.88023952,31.5883,33.3211,-0.332285115,-0.001048218,1.0,0.0,0.0,0.7166,target,33.3212,34.3211,0.0,9.0,9.0,6.0,1.0,-0.35,0.0,1.0,left,,,,,0.12377346427707776
,,99,1,2025-12-15,posner,2023.2.2,Win32,59.88023952,34.3215,36.1043,-0.299790356,-0.011530398,1.0,0.0,0.0,0.7666,target,36.1044,37.1045,0.0,10.0,10.0,12.0,1.0,-0.35,180.0,0.0,left,,,,,0.28779124071012535
,,99,1,2025-12-15,posner,2023.2.2,Win32,59.88023952,37.105,38.8378,0.404612159,-0.007337526,1.0,0.0,0.0,0.7164,target,38.8378,39.8376,0.0,11.0,11.0,9.0,1.0,0.35,0.0,0.0,right,,,,,0.12311739317134565
,,99,1,2025-12-15,posner,2023.2.2,Win32,59.88023952,39.8381,41.7376,0.364779874,-0.025157233,1.0,0.0,0.0,0.8832,target,41.7377,42.7379,0.0,12.0,12.0,13.0,1.0,0.35,0.0,0.0,right,,,,,0.670280695351993
,,99,1,2025-12-15,posner,2023.2.2,Win32,59.88023952,42.7383,44.9045,-0.398322851,0.017819706,1.0,0.0,0.0,1.1501,target,44.9046,45.9043,0.0,13.0,13.0,8.0,1.0,-0.35,180.0,0.0,left,,,,,1.5458075859516018
,,0,1,2025-12-16,posner,2023.2.2,Win32,3.752345216,11.2494,13.2308,-0.410852713,0.000775194,1.0,0.0,0.0,0.7616,target,13.2313,14.098,0.0,0.0,0.0,6.0,1.0,-0.35,0.0,1.0,left,,,,,0.27138946306682094
,,0,1,2025-12-16,posner,2023.2.2,Win32,3.752345216,18.6913,20.4192,-0.251162791,0.020930233,1.0,0.0,0.0,0.7159,target,20.4199,21.4845,0.0,2.0,2.0,0.0,1.0,-0.35,0.0,1.0,left,,,,,0.12147721540701499
,,0,1,2025-12-16,posner,2023.2.2,Win32,3.752345216,21.4852,23.6707,0.336434109,0.030232558,1.0,0.0,0.0,0.9164,target,23.6712,24.5768,0.0,3.0,3.0,11.0,1.0,0.35,0.0,0.0,right,,,,,0.7791884989035367
,,0,1,2025-12-16,posner,2023.2.2,Win32,3.752345216,29.8451,31.8832,0.306976744,-0.008527132,1.0,0.0,0.0,0.9313,target,31.8835,32.8023,0.0,5.0,5.0,5.0,1.0,0.35,180.0,1.0,right,,,,,0.8280657962805851
,,0,1,2025-12-16,posner,2023.2.2,Win32,3.752345216,32.8037,34.8291,-0.293023256,-0.006976744,1.0,0.0,0.0,0.9048,target,34.8295,35.7234,0.0,6.0,6.0,10.0,1.0,-0.35,180.0,0.0,left,,,,,0.7411363747710699
,,0,1,2025-12-16,posner,2023.2.2,Win32,3.752345216,40.7765,43.1181,-0.378294574,0.025581395,1.0,0.0,0.0,1.1762,target,43.1184,44.0161,0.0,8.0,8.0,12.0,1.0,-0.35,180.0,0.0,left,,,,,1.6314248652496528
,,0,1,2025-12-16,posner,2023.2.2,Win32,3.752345216,44.0168,46.0423,-0.379844961,0.006976744,1.0,0.0,0.0,0.8976,target,46.0426,46.938,0.0,9.0,9.0,2.0,1.0,-0.35,0.0,1.0,left,,,,,0.7175178149647107
,,0,1,2025-12-16,posner,2023.2.2,Win32,3.752345216,46.9389,49.4338,0.339534884,0.000775194,1.0,0.0,0.0,1.3917,target,49.4342,50.306,0.0,10.0,10.0,13.0,1.0,0.35,0.0,0.0,right,,,,,2.338341481676089
,,0,1,2025-12-16,posner,2023.2.2,Win32,3.752345216,54.3662,56.882,0.265116279,0.006976744,1.0,0.0,0.0,1.3693,target,56.8823,57.8034,0.0,12.0,12.0,3.0,1.0,0.35,180.0,1.0,right,,,,,2.264861517834084
,,0,1,2025-12-14,posner,2023.2.2,Win32,60.97560976,10.2931,12.2746,0.294858342,0.005771249,1.0,0.0,0.0,0.9665,target,12.2746,13.2744,0.0,1.0,1.0,5.0,1.0,0.35,180.0,1.0,right,,,,,0.9435343108894507
,,0,1,2025-12-14,posner,2023.2.2,Win32,60.97560976,13.275,14.9914,-0.310598111,0.002623295,1.0,0.0,0.0,0.7002,target,14.9915,15.9907,0.0,2.0,2.0,12.0,1.0,-0.35,180.0,0.0,left,,,,,0.06997563360703818
,,10,1,2025-12-16,posner,2023.2.2,Win32,29.85074627,5.0419,6.733,-0.394820135,-0.015395701,1.0,0.0,0.0,0.6659,target,6.7339,7.7326,0.0,0.0,0.0,6.0,1.0,-0.35,0.0,1.0,left,,,,,0.042540561026032604
,,10,1,2025-12-16,posner,2023.2.2,Win32,29.85074627,7.7333,9.4966,0.329208616,-0.01884893,1.0,0.0,0.0,0.7326,target,9.4971,10.4965,0.0,1.0,1.0,1.0,1.0,0.35,180.0,1.0,right,,,,,0.17625915273565312
,,10,1,2025-12-16,posner,2023.2.2,Win32,29.85074627,10.497,12.794,-0.295827303,-0.001582743,1.0,0.0,0.0,1.2656,target,12.7946,13.7935,0.0,2.0,2.0,0.0,1.0,-0.35,0.0,1.0,left,,,,,1.9246886495119429
,,10,1,2025-12-16,posner,2023.2.2,Win32,29.85074627,13.794,15.7917,0.392518056,-0.006187077,1.0,0.0,0.0,0.9656,target,15.7922,16.791,0.0,3.0,3.0,11.0,1.0,0.35,0.0,0.0,right,,,,,0.9405819909136558
,,10,1,2025-12-22,posner,2023.2.2,Win32,59.88023952,6.3661,8.5444,0.313014827,-0.00247117,1.0,0.0,0.0,1.1683,target,8.545,9.5448,0.0,0.0,0.0,3.0,1.0,0.35,180.0,1.0,right,,,,,1.6055100565732312
,,10,1,2025-12-22,posner,2023.2.2,Win32,59.88023952,9.5459,11.4302,-0.388797364,0.02553542,1.0,0.0,0.0,0.8676,target,11.4303,12.4315,0.0,1.0,1.0,0.0,1.0,-0.35,0.0,1.0,left,,,,,0.6191071491048822
,,10,1,2025-12-22,posner,2023.2.2,Win32,59.88023952,12.4324,14.3339,-0.317957166,-0.030477759,1.0,0.0,0.0,0.901,target,14.334,15.3352,0.0,2.0,2.0,10.0,1.0,-0.35,180.0,0.0,left,,,,,0.7286710237621581
,,10,1,2025-12-22,posner,2023.2.2,Win32,59.88023952,15.3358,17.2547,-0.299835255,-0.010708402,1.0,0.0,0.0,0.9179,target,17.2547,18.2559,0.0,3.0,3.0,12.0,1.0,-0.35,180.0,0.0,left,,,,,0.7841090321965284
,,10,1,2025-12-22,posner,2023.2.2,Win32,59.88023952,22.1118,24.3646,0.337726524,0.000823723,1.0,0.0,0.0,1.2519,target,24.3647,25.3657,0.0,5.0,5.0,9.0,1.0,0.35,0.0,0.0,right,,,,,1.8797477787692876
,,10,1,2025-12-22,posner,2023.2.2,Win32,59.88023952,25.3662,27.1849,-0.271828666,0.015650741,1.0,0.0,0.0,0.8175,target,27.1851,28.1863,0.0,6.0,6.0,2.0,1.0,-0.35,0.0,1.0,left,,,,,0.4547613371189682
,,10,1,2025-12-22,posner,2023.2.2,Win32,59.88023952,28.1869,30.573,0.33937397,0.007413509,1.0,0.0,0.0,1.3851,target,30.5731,31.5743,0.0,7.0,7.0,5.0,1.0,0.35,180.0,1.0,right,,,,,2.316691135186927
,,10,1,2025-12-22,posner,2023.2.2,Win32,59.88023952,31.5748,33.7446,0.345963756,-0.014003295,1.0,0.0,0.0,1.1685,target,33.7448,34.7451,0.0,8.0,8.0,13.0,1.0,0.35,0.0,0.0,right,,,,,1.606166127678964
,,10,1,2025-12-22,posner,2023.2.2,Win32,59.88023952,34.7458,36.4809,-0.299835255,-0.032125206,1.0,0.0,0.0,0.7341,target,36.481,37.4825,0.0,9.0,9.0,4.0,1.0,-0.35,0.0,1.0,left,,,,,0.18117968602864437
,,10,1,2025-12-22,posner,2023.2.2,Win32,59.88023952,37.4831,39.3684,0.336079077,0.000823723,1.0,0.0,0.0,0.8838,target,39.3685,40.3696,0.0,10.0,10.0,7.0,1.0,0.35,180.0,1.0,right,,,,,0.6722489086691897
,,10,1,2025-12-22,posner,2023.2.2,Win32,59.88023952,40.3705,42.1387,-0.291598023,0.017298188,1.0,0.0,0.0,0.7675,target,42.1388,43.1399,0.0,11.0,11.0,6.0,1.0,-0.35,0.0,1.0,left,,,,,0.2907435606859203
,,10,1,2025-12-22,posner,2023.2.2,Win32,59.88023952,43.1406,45.2932,-0.255354201,0.012355848,1.0,0.0,0.0,1.1511,target,45.2933,46.295,0.0,12.0,12.0,8.0,1.0,-0.35,180.0,0.0,left,,,,,1.5490879414802632
,,1111,1,2025-12-18,posner,2023.2.2,Win32,60.24096386,37.6741,39.5372,-0.39680778,0.027338754,1.0,0.0,0.0,0.8502,target,39.5373,40.5384,0.0,0.0,0.0,8.0,1.0,-0.35,180.0,0.0,left,,,,,0.5620289629061813
,,1111,1,2025-12-18,posner,2023.2.2,Win32,60.24096386,40.5387,42.6902,0.274283755,0.011535982,1.0,0.0,0.0,1.151,target,42.6902,43.6915,0.0,1.0,1.0,9.0,1.0,0.35,0.0,0.0,right,,,,,1.548759905927397
,,1111,1,2025-12-18,posner,2023.2.2,Win32,60.24096386,43.6924,45.4093,0.321692003,-0.006373853,1.0,0.0,0.0,0.6999,target,45.4093,46.4106,0.0,2.0,2.0,11.0,1.0,0.35,0.0,0.0,right,,,,,0.06899152694843964
,,1111,1,2025-12-18,posner,2023.2.2,Win32,60.24096386,46.4111,48.0621,0.28376581,-0.001106363,1.0,0.0,0.0,0.6502,target,48.0622,49.0638,0.0,3.0,3.0,5.0,1.0,0.35,180.0,1.0,right,,,,,0.09404214282600977
,,1111,1,2025-12-18,posner,2023.2.2,Win32,60.24096386,49.0644,50.6981,-0.371523359,0.05578377,1.0,0.0,0.0,0.6172,target,50.6981,51.6995,0.0,4.0,4.0,4.0,1.0,-0.35,0.0,1.0,left,,,,,0.2022938752718214
,,1111,1,2025-12-18,posner,2023.2.2,Win32,60.24096386,51.7,53.5678,-0.431573918,0.027338754,1.0,0.0,0.0,0.8673,target,53.5678,54.5688,0.0,5.0,5.0,6.0,1.0,-0.35,0.0,1.0,left,,,,,0.6181230424462837
,,1111,1,2025-12-18,posner,2023.2.2,Win32,60.24096386,54.5692,56.3041,-0.295669893,0.014696577,1.0,0.0,0.0,0.7342,target,56.3043,57.3047,0.0,6.0,6.0,10.0,1.0,-0.35,180.0,0.0,left,,,,,0.18150772158151043
,,1111,1,2025-12-18,posner,2023.2.2,Win32,60.24096386,57.3049,58.9229,0.37542144,-0.013748439,1.0,0.0,0.0,0.6164,target,58.9229,59.924,0.0,7.0,7.0,13.0,1.0,0.35,0.0,0.0,right,,,,,0.20491815969475025
,,1111,1,2025-12-18,posner,2023.2.2,Win32,60.24096386,59.9243,61.2586,0.368046853,-0.013748439,1.0,0.0,0.0,0.3336,target,61.2587,62.2602,0.0,8.0,8.0,7.0,1.0,0.35,180.0,1.0,right,,,,,1.1326027032000685
,,1111,1,2025-12-18,posner,2023.2.2,Win32,60.24096386,62.2606,64.1129,-0.384165604,0.044195091,1.0,0.0,0.0,0.8517,target,64.1131,65.1128,0.0,9.0,9.0,12.0,1.0,-0.35,180.0,0.0,left,,,,,0.5669494961991729
,,1111,1,2025-12-18,posner,2023.2.2,Win32,60.24096386,65.1134,66.764,0.340655572,0.003107864,1.0,0.0,0.0,0.6501,target,66.764,67.7655,0.0,10.0,10.0,1.0,1.0,0.35,180.0,1.0,right,,,,,0.09437017837887583
,,1111,1,2025-12-18,posner,2023.2.2,Win32,60.24096386,67.7659,69.4501,-0.417878143,0.029445716,1.0,0.0,0.0,0.6839,target,69.4501,70.4515,0.0,11.0,11.0,2.0,1.0,-0.35,0.0,1.0,left,,,,,0.016505838489864297
,,1111,1,2025-12-18,posner,2023.2.2,Win32,60.24096386,70.452,71.9527,0.383850098,-0.010587912,1.0,0.0,0.0,0.5003,target,71.9527,72.954,0.0,12.0,12.0,3.0,1.0,0.35,180.0,1.0,right,,,,,0.5857674365722872
,,1111,1,2025-12-18,posner,2023.2.2,Win32,60.24096386,72.9545,74.7722,-0.310419268,0.007321822,1.0,0.0,0.0,0.8171,target,74.7722,75.7731,0.0,13.0,13.0,0.0,1.0,-0.35,0.0,1.0,left,,,,,0.45344919490750396
,,1111,1,2025-12-17,posner,2023.2.2,Win32,59.17159763,4.8455,6.3905,-0.292682267,-0.015329439,1.0,0.0,0.0,0.5338,target,6.3907,7.3908,0.0,0.0,0.0,0.0,1.0,-0.35,0.0,1.0,left,,,,,0.4758755263621449
,,1111,1,2025-12-17,posner,2023.2.2,Win32,59.17159763,7.392,9.0237,0.32761068,0.017286387,1.0,0.0,0.0,0.6167,target,9.0238,10.0237,0.0,1.0,1.0,9.0,1.0,0.35,0.0,0.0,right,,,,,0.20393405303615172
,,1111,1,2025-12-17,posner,2023.2.2,Win32,59.17159763,10.024,11.6068,-0.328263076,-0.030154712,1.0,0.0,0.0,0.5793,target,11.6069,12.6142,0.0,2.0,2.0,2.0,1.0,-0.35,0.0,1.0,left,,,,,0.32661934980807145
,,1111,1,2025-12-17,posner,2023.2.2,Win32,59.17159763,12.6146,14.1309,0.322273508,0.003054057,1.0,0.0,0.0,0.5154,target,14.1312,15.1374,0.0,3.0,3.0,5.0,1.0,0.35,180.0,1.0,right,,,,,0.5362340680895068
,,1111,1,2025-12-17,posner,2023.2.2,Win32,59.17159763,15.1378,16.6189,0.318715433,-0.00109708,1.0,0.0,0.0,0.4662,target,16.6189,17.6177,0.0,4.0,4.0,3.0,1.0,0.35,180.0,1.0,right,,,,,0.6976275600996257
,,1111,1,2025-12-17,posner,2023.2.2,Win32,59.17159763,17.6179,19.0895,-0.280228945,-0.045573136,1.0,0.0,0.0,0.4536,target,19.0897,20.0871,0.0,5.0,5.0,4.0,1.0,-0.35,0.0,1.0,left,,,,,0.7389600397607538
,,1111,1,2025-12-17,posner,2023.2.2,Win32,59.17159763,20.0874,21.518,0.299739114,-0.025410632,1.0,0.0,0.0,0.4258,target,21.5181,22.5219,0.0,6.0,6.0,1.0,1.0,0.35,180.0,1.0,right,,,,,0.8301539234575283
,,1111,1,2025-12-17,posner,2023.2.2,Win32,59.17159763,22.5224,23.9683,-0.250578222,-0.011771364,1.0,0.0,0.0,0.4392,target,23.9683,24.9576,0.0,7.0,7.0,6.0,1.0,-0.35,0.0,1.0,left,,,,,0.7861971593734716
,,1111,1,2025-12-17,posner,2023.2.2,Win32,59.17159763,24.9586,26.4699,-0.255322361,-0.036084856,1.0,0.0,0.0,0.5086,target,26.47,27.4692,0.0,8.0,8.0,10.0,1.0,-0.35,180.0,0.0,left,,,,,0.558540485684401
,,1111,1,2025-12-17,posner,2023.2.2,Win32,59.17159763,27.4695,28.936,0.354889334,0.004833095,1.0,0.0,0.0,0.4624,target,28.936,29.9303,0.0,9.0,9.0,13.0,1.0,0.35,0.0,0.0,right,,,,,0.7100929111085375
,,1111,1,2025-12-17,posner,2023.2.2,Win32,59.17159763,29.9313,31.5307,-0.252357259,0.001868022,1.0,0.0,0.0,0.5964,target,31.5307,32.5234,0.0,10.0,10.0,12.0,1.0,-0.35,180.0,0.0,left,,,,,0.2705252702679691
,,1111,1,2025-12-17,posner,2023.2.2,Win32,59.17159763,32.5244,34.1139,-0.27904294,-0.006434192,1.0,0.0,0.0,0.565,target,34.1142,35.1075,0.0,11.0,11.0,8.0,1.0,-0.35,180.0,0.0,left,,,,,0.3735284338679234
,,1111,1,2025-12-17,posner,2023.2.2,Win32,59.17159763,35.1085,36.867,0.33709884,-0.002283085,1.0,0.0,0.0,0.7504,target,36.867,37.8562,0.0,12.0,12.0,11.0,1.0,0.35,0.0,0.0,right,,,,,0.2346494811458179
,,1111,1,2025-12-17,posner,2023.2.2,Win32,59.17159763,37.8572,39.3005,0.319901498,-0.020073519,1.0,0.0,0.0,0.4336,target,39.3006,40.2915,0.0,13.0,13.0,7.0,1.0,0.35,180.0,1.0,right,,,,,0.804567150333973
,,111,1,2025-12-17,posner,2023.2.2,MacIntel,117.6470588,3.8415,5.9201,-0.381114374,-0.026828147,1.0,0.0,0.0,1.0751,target,5.9203,6.9202,0.0,0.0,0.0,0.0,1.0,-0.35,0.0,1.0,left,,,,,1.2997809213020304
,,111,1,2025-12-17,posner,2023.2.2,MacIntel,117.6470588,6.9212,8.7361,0.337092001,-0.02370651,1.0,0.0,0.0,0.8082,target,8.7361,9.7369,0.0,1.0,1.0,7.0,1.0,0.35,180.0,1.0,right,,,,,0.4242540307024214
,,111,1,2025-12-17,posner,2023.2.2,MacIntel,117.6470588,9.7376,11.5444,-0.31735339,-0.013018965,1.0,0.0,0.0,0.7993,target,11.5444,12.5445,0.0,2.0,2.0,8.0,1.0,-0.35,180.0,0.0,left,,,,,0.39505886649733885
,,111,1,2025-12-17,posner,2023.2.2,MacIntel,117.6470588,12.5449,14.3693,0.322840074,0.019256636,1.0,0.0,0.0,0.816,target,14.3694,15.3703,0.0,3.0,3.0,1.0,1.0,0.35,180.0,1.0,right,,,,,0.4498408038259766
,,111,1,2025-12-17,posner,2023.2.2,MacIntel,117.6470588,15.3712,17.0543,-0.331835097,-0.005514706,1.0,0.0,0.0,0.6754,target,17.0543,18.0532,0.0,4.0,4.0,12.0,1.0,-0.35,180.0,0.0,left,,,,,0.011377183503753672
,,111,1,2025-12-17,posner,2023.2.2,MacIntel,117.6470588,18.0539,19.7271,-0.313323843,-0.004382622,1.0,0.0,0.0,0.6661,target,19.7272,20.7281,0.0,5.0,5.0,4.0,1.0,-0.35,0.0,1.0,left,,,,,0.04188448992030048
,,111,1,2025-12-17,posner,2023.2.2,MacIntel,117.6470588,20.7291,22.3527,-0.386393696,-0.024620023,1.0,0.0,0.0,0.6164,target,22.3528,23.3525,0.0,6.0,6.0,2.0,1.0,-0.35,0.0,1.0,left,,,,,0.20491815969475025
,,111,1,2025-12-17,posner,2023.2.2,MacIntel,117.6470588,23.3528,25.0107,0.289942387,0.027573529,1.0,0.0,0.0,0.6497,target,25.0108,26.0113,0.0,7.0,7.0,5.0,1.0,0.35,180.0,1.0,right,,,,,0.09568232059034007
,,111,1,2025-12-17,posner,2023.2.2,MacIntel,117.6470588,26.0122,27.5609,-0.382834918,0.00363724,1.0,0.0,0.0,0.5411,target,27.561,28.5613,0.0,8.0,8.0,6.0,1.0,-0.35,0.0,1.0,left,,,,,0.45192893100292
,,111,1,2025-12-17,posner,2023.2.2,MacIntel,117.6470588,28.5623,30.3454,0.341614733,0.00969557,1.0,0.0,0.0,0.776,target,30.3455,31.3443,0.0,9.0,9.0,13.0,1.0,0.35,0.0,0.0,right,,,,,0.3186265826795386
,,111,1,2025-12-17,posner,2023.2.2,MacIntel,117.6470588,31.3448,32.9948,-0.323081062,0.002897462,1.0,0.0,0.0,0.6416,target,32.9948,33.9943,0.0,10.0,10.0,10.0,1.0,-0.35,180.0,0.0,left,,,,,0.12225320037249417
,,111,1,2025-12-17,posner,2023.2.2,MacIntel,117.6470588,33.9952,35.7206,0.35326623,0.035795149,1.0,0.0,0.0,0.7178,target,35.7206,36.7193,0.0,11.0,11.0,9.0,1.0,0.35,0.0,0.0,right,,,,,0.12770989091147084
,,111,1,2025-12-17,posner,2023.2.2,MacIntel,117.6470588,40.5701,42.2864,0.344624283,-0.006405802,1.0,0.0,0.0,0.7083,target,42.2866,43.2862,0.0,13.0,13.0,3.0,1.0,0.35,180.0,1.0,right,,,,,0.09654651338919192
,,111,1,2025-12-20,posner,2023.2.2,Win32,60.97560976,0.7831,2.5436,-0.2813938,0.00887574,1.0,0.0,0.0,0.7496,target,2.544,3.5427,0.0,0.0,0.0,10.0,1.0,-0.35,180.0,0.0,left,,,,,0.2320251967228894
,,111,1,2025-12-20,posner,2023.2.2,Win32,60.97560976,3.5433,5.2917,0.361604288,-0.051610823,1.0,0.0,0.0,0.7329,target,5.2918,6.2911,0.0,1.0,1.0,9.0,1.0,0.35,0.0,0.0,right,,,,,0.17724325939425128
,,111,1,2025-12-20,posner,2023.2.2,Win32,60.97560976,6.2914,7.8406,-0.376068356,-0.006903353,1.0,0.0,0.0,0.533,target,7.8408,8.8405,0.0,2.0,2.0,4.0,1.0,-0.35,0.0,1.0,left,,,,,0.47849981078507375
,,111,1,2025-12-20,posner,2023.2.2,Win32,60.97560976,8.8408,10.6226,-0.42209073,0.011505548,1.0,0.0,0.0,0.7662,target,10.6226,11.6225,0.0,3.0,3.0,2.0,1.0,-0.35,0.0,1.0,left,,,,,0.2864790984986611
,,111,1,2025-12-20,posner,2023.2.2,Win32,60.97560976,11.6229,13.4215,0.397107247,-0.008218318,1.0,0.0,0.0,0.7832,target,13.4216,14.421,0.0,4.0,4.0,11.0,1.0,0.35,0.0,0.0,right,,,,,0.34224514248589744
,,111,1,2025-12-20,posner,2023.2.2,Win32,60.97560976,14.4212,15.9534,-0.274819158,-0.001643676,1.0,0.0,0.0,0.5159,target,15.9535,16.9534,0.0,5.0,5.0,6.0,1.0,-0.35,0.0,1.0,left,,,,,0.5345938903251761
,,111,1,2025-12-20,posner,2023.2.2,Win32,60.97560976,16.9536,18.4197,-0.394477318,0.022024963,1.0,0.0,0.0,0.4497,target,18.4198,19.4194,0.0,6.0,6.0,0.0,1.0,-0.35,0.0,1.0,left,,,,,0.7517534263225315
,,111,1,2025-12-20,posner,2023.2.2,Win32,60.97560976,19.4196,21.1017,0.403681828,-0.008218318,1.0,0.0,0.0,0.6667,target,21.1018,22.1007,0.0,7.0,7.0,1.0,1.0,0.35,180.0,1.0,right,,,,,0.03991627660310412
,,111,1,2025-12-20,posner,2023.2.2,Win32,60.97560976,22.101,24.5666,0.310322237,-0.037146634,1.0,0.0,0.0,1.4492,target,24.5667,25.566,0.0,8.0,8.0,7.0,1.0,0.35,180.0,1.0,right,,,,,2.526961924574094
,,111,1,2025-12-20,posner,2023.2.2,Win32,60.97560976,25.5662,27.4654,0.355029586,-0.02399741,1.0,0.0,0.0,0.883,target,27.4655,28.4647,0.0,9.0,9.0,13.0,1.0,0.35,0.0,0.0,right,,,,,0.6696246242462608
,,111,1,2025-12-20,posner,2023.2.2,Win32,60.97560976,28.4649,30.4301,-0.382642998,0.035174187,1.0,0.0,0.0,0.9493,target,30.4301,31.4299,0.0,10.0,10.0,8.0,1.0,-0.35,180.0,0.0,left,,,,,0.8871121957964824
,,111,1,2025-12-20,posner,2023.2.2,Win32,60.97560976,31.4302,33.0129,0.326101329,-0.008218318,1.0,0.0,0.0,0.5666,target,33.013,34.0121,0.0,11.0,11.0,5.0,1.0,0.35,180.0,1.0,right,,,,,0.3682798650220657
,,111,1,2025-12-20,posner,2023.2.2,Win32,60.97560976,34.0122,35.7778,0.290598371,-0.008218318,1.0,0.0,0.0,0.7495,target,35.7778,36.7776,0.0,12.0,12.0,3.0,1.0,0.35,180.0,1.0,right,,,,,0.23169716117002337
,,111,1,2025-12-20,posner,2023.2.2,Win32,60.97560976,36.7777,38.3938,-0.35634449,-0.013477995,1.0,0.0,0.0,0.5997,target,38.3939,39.3932,0.0,13.0,13.0,12.0,1.0,-0.35,180.0,0.0,left,,,,,0.25970009702338803
,,111,1,2025-12-20,posner,2023.2.2,Win32,60.24096386,7.938,10.0209,0.335146899,-0.049510337,1.0,0.0,0.0,1.0663,target,10.0209,11.0213,0.0,1.0,1.0,13.0,1.0,0.35,0.0,0.0,right,,,,,1.2709137926498142
,,111,1,2025-12-20,posner,2023.2.2,Win32,60.24096386,11.0216,12.6874,0.413492927,-0.008161045,1.0,0.0,0.0,0.6493,target,12.6875,13.6881,0.0,2.0,2.0,11.0,1.0,0.35,0.0,0.0,right,,,,,0.09699446280180467
,,1234567,1,2025-12-18,posner,2023.2.2,Win32,82.6446281,0.7184,2.4181,-0.290199081,-0.016079632,1.0,0.0,0.0,0.6962,target,2.4182,3.4175,0.0,0.0,0.0,10.0,1.0,-0.35,180.0,0.0,left,,,,,0.05685421149239435
,,1234567,1,2025-12-18,posner,2023.2.2,Win32,82.6446281,3.4177,4.8815,0.428790199,-0.045941807,1.0,0.0,0.0,0.4623,target,4.8815,5.8851,0.0,1.0,1.0,13.0,1.0,0.35,0.0,0.0,right,,,,,0.7104209466614034
,,1234567,1,2025-12-18,posner,2023.2.2,Win32,82.6446281,5.8853,7.3933,0.401990812,-0.018376723,1.0,0.0,0.0,0.5001,target,7.3933,8.3895,0.0,2.0,2.0,9.0,1.0,0.35,0.0,0.0,right,,,,,0.5864235076780193
,,1234567,1,2025-12-18,posner,2023.2.2,Win32,82.6446281,8.3897,10.2729,-0.359111792,0.029862175,1.0,0.0,0.0,0.8758,target,10.2729,11.2675,0.0,3.0,3.0,12.0,1.0,-0.35,180.0,0.0,left,,,,,0.646006064439902
,,1234567,1,2025-12-18,posner,2023.2.2,Win32,82.6446281,16.3663,18.3314,-0.310872894,-0.008422665,1.0,0.0,0.0,0.9594,target,18.3315,19.3288,0.0,5.0,5.0,8.0,1.0,-0.35,180.0,0.0,left,,,,,0.920243786635958
,,1234567,1,2025-12-18,posner,2023.2.2,Win32,82.6446281,19.3291,21.2671,0.401225115,0.006125574,1.0,0.0,0.0,0.9297,target,21.2671,22.2693,0.0,6.0,6.0,11.0,1.0,0.35,0.0,0.0,right,,,,,0.8228172274347274
,,1234567,1,2025-12-18,posner,2023.2.2,Win32,82.6446281,22.2695,23.7318,0.380551302,0.02143951,1.0,0.0,0.0,0.4585,target,23.7319,24.7272,0.0,7.0,7.0,7.0,1.0,0.35,180.0,1.0,right,,,,,0.722886297670315
,,12345,1,2025-12-17,posner,2023.2.2,Win32,166.6666667,1.0572,2.5117,-0.28330781,0.02143951,1.0,0.0,0.0,0.4529,target,2.5118,3.5077,0.0,0.0,0.0,2.0,1.0,-0.35,0.0,1.0,left,,,,,0.7412562886308164
,,1234,1,2025-12-17,posner,2023.2.2,MacIntel,60.97560976,18.1098,20.1742,0.341196399,-0.016042654,1.0,0.0,0.0,1.0508,target,20.1746,21.17,0.0,0.0,0.0,7.0,1.0,0.35,180.0,1.0,right,,,,,1.220068281955569
,,1234,1,2025-12-17,posner,2023.2.2,MacIntel,60.97560976,21.1707,23.6709,-0.371143048,0.024329957,1.0,0.0,0.0,1.4833,target,23.671,24.6702,0.0,1.0,1.0,6.0,1.0,-0.35,0.0,1.0,left,,,,,2.638822048101433
,,1234,1,2025-12-17,posner,2023.2.2,MacIntel,60.97560976,29.388,31.2043,0.349886705,-0.004819916,1.0,0.0,0.0,0.8003,target,31.2045,32.2038,0.0,3.0,3.0,3.0,1.0,0.35,180.0,1.0,right,,,,,0.3983392220259998
,,1234,1,2025-12-17,posner,2023.2.2,MacIntel,60.97560976,32.2042,33.8037,-0.414058554,-0.004760742,1.0,0.0,0.0,0.5991,target,33.8038,34.8046,0.0,4.0,4.0,12.0,1.0,-0.35,180.0,0.0,left,,,,,0.26166831034058474
,,1234,1,2025-12-17,posner,2023.2.2,MacIntel,60.97560976,34.805,36.4211,0.361370218,-0.001729221,1.0,0.0,0.0,0.5997,target,36.4213,37.4204,0.0,5.0,5.0,5.0,1.0,0.35,180.0,1.0,right,,,,,0.25970009702338803
,,1234,1,2025-12-17,posner,2023.2.2,MacIntel,60.97560976,37.421,39.3049,-0.317432232,0.007592199,1.0,0.0,0.0,0.8834,target,39.305,40.305,0.0,6.0,6.0,10.0,1.0,-0.35,180.0,0.0,left,,,,,0.670936766457725
,,1234,1,2025-12-17,posner,2023.2.2,MacIntel,60.97560976,40.3054,41.8552,-0.362546035,-0.013596836,1.0,0.0,0.0,0.5339,target,41.8554,42.8552,0.0,7.0,7.0,2.0,1.0,-0.35,0.0,1.0,left,,,,,0.47554749080927883
,,1234,1,2025-12-17,posner,2023.2.2,MacIntel,60.97560976,42.8555,44.8541,-0.286396866,0.020162405,1.0,0.0,0.0,0.9831,target,44.8543,45.8545,0.0,8.0,8.0,8.0,1.0,-0.35,180.0,0.0,left,,,,,0.9979882126652224
,,1234,1,2025-12-17,posner,2023.2.2,MacIntel,60.97560976,45.8548,47.338,0.377779123,0.003745851,1.0,0.0,0.0,0.4667,target,47.3382,48.3377,0.0,9.0,9.0,1.0,1.0,0.35,180.0,1.0,right,,,,,0.6959873823352952
,,1234,1,2025-12-17,posner,2023.2.2,MacIntel,60.97560976,48.3379,49.9048,0.258058098,-0.004954047,1.0,0.0,0.0,0.5658,target,49.9049,50.9051,0.0,10.0,10.0,13.0,1.0,0.35,0.0,0.0,right,,,,,0.37090414944499456
,,1234,1,2025-12-17,posner,2023.2.2,MacIntel,60.97560976,50.9056,53.2383,0.316944315,-0.014107135,1.0,0.0,0.0,1.3167,target,53.2383,54.2381,0.0,11.0,11.0,11.0,1.0,0.35,0.0,0.0,right,,,,,2.0923148170265176
,,1234,1,2025-12-17,posner,2023.2.2,MacIntel,60.97560976,54.2384,55.6385,0.279144125,-0.006119058,1.0,0.0,0.0,0.3829,target,55.6385,56.6393,0.0,12.0,12.0,9.0,1.0,0.35,0.0,0.0,right,,,,,0.9708811756370833
,,1234,1,2025-12-17,posner,2023.2.2,MacIntel,60.97560976,56.6396,58.1556,-0.446733308,-0.002932521,1.0,0.0,0.0,0.4994,target,58.1562,59.1567,0.0,13.0,13.0,0.0,1.0,-0.35,0.0,1.0,left,,,,,0.588719756548082
,,123,1,2025-12-15,posner,2023.2.2,Win32,59.52380952,88.8364,90.3995,0.311006251,-0.007027165,1.0,0.0,0.0,0.5586,target,90.3998,91.3899,0.0,0.0,0.0,11.0,1.0,0.35,0.0,0.0,right,,,,,0.3945227092513534
,,123,1,2025-12-15,posner,2023.2.2,Win32,59.52380952,91.3911,93.14,-0.324705001,-0.008806203,1.0,0.0,0.0,0.7329,target,93.1402,94.1393,0.0,1.0,1.0,12.0,1.0,-0.35,180.0,0.0,left,,,,,0.17724325939425128
,,123,1,2025-12-15,posner,2023.2.2,Win32,59.52380952,94.1397,95.6391,-0.378669336,0.031518746,1.0,0.0,0.0,0.4828,target,95.6392,96.6394,0.0,2.0,2.0,4.0,1.0,-0.35,0.0,1.0,left,,,,,0.6431736583238538
,,123,1,2025-12-15,posner,2023.2.2,Win32,59.52380952,96.6399,98.1892,-0.370960153,0.008391229,1.0,0.0,0.0,0.5337,target,98.1892,99.1896,0.0,3.0,3.0,10.0,1.0,-0.35,180.0,0.0,left,,,,,0.47620356191501134
,,123,1,2025-12-15,posner,2023.2.2,Win32,59.52380952,99.19,100.7225,0.319901498,-0.037270921,1.0,0.0,0.0,0.5168,target,100.7226,101.7225,0.0,4.0,4.0,3.0,1.0,0.35,180.0,1.0,right,,,,,0.5316415703493812
,,123,1,2025-12-15,posner,2023.2.2,Win32,59.52380952,101.7229,103.2392,-0.411285072,0.015507349,1.0,0.0,0.0,0.5003,target,103.2393,104.2397,0.0,5.0,5.0,8.0,1.0,-0.35,180.0,0.0,left,,,,,0.5857674365722872
,,123,1,2025-12-15,posner,2023.2.2,Win32,59.52380952,104.2401,105.7224,-0.307507599,-0.030747744,1.0,0.0,0.0,0.4666,target,105.7225,106.7226,0.0,6.0,6.0,0.0,1.0,-0.35,0.0,1.0,left,,,,,0.6963154178881613
,,123,1,2025-12-15,posner,2023.2.2,Win32,59.52380952,106.723,108.222,0.286099607,-0.036084856,1.0,0.0,0.0,0.4829,target,108.2221,109.2221,0.0,7.0,7.0,9.0,1.0,0.35,0.0,0.0,right,,,,,0.6428456227709878
,,123,1,2025-12-15,posner,2023.2.2,Win32,59.52380952,109.2224,110.6892,0.340064002,-0.039049959,1.0,0.0,0.0,0.4502,target,110.6894,111.6891,0.0,8.0,8.0,5.0,1.0,0.35,180.0,1.0,right,,,,,0.750113248558201
,,123,1,2025-12-15,posner,2023.2.2,Win32,59.52380952,111.6896,113.0721,-0.263624576,0.012542277,1.0,0.0,0.0,0.3664,target,113.0722,114.0724,0.0,9.0,9.0,2.0,1.0,-0.35,0.0,1.0,left,,,,,1.025007041859989
,,123,1,2025-12-15,posner,2023.2.2,Win32,59.52380952,114.0727,115.4894,0.371493763,-0.014143375,1.0,0.0,0.0,0.4,target,115.4895,116.4893,0.0,10.0,10.0,7.0,1.0,0.35,180.0,1.0,right,,,,,0.914787096096981
,,123,1,2025-12-15,posner,2023.2.2,Win32,59.52380952,116.4897,117.8586,-0.279635913,-0.031933809,1.0,0.0,0.0,0.3526,target,117.8587,118.8558,0.0,11.0,11.0,6.0,1.0,-0.35,0.0,1.0,left,,,,,1.0702759481555102
,,123,1,2025-12-15,posner,2023.2.2,Win32,59.52380952,118.8561,120.2724,0.284913662,-0.004062123,1.0,0.0,0.0,0.3996,target,120.2726,121.2724,0.0,12.0,12.0,1.0,1.0,0.35,180.0,1.0,right,,,,,0.9160992383084453
,,123,1,2025-12-15,posner,2023.2.2,Win32,59.52380952,121.2728,123.2724,0.370307698,-0.001690053,1.0,0.0,0.0,0.9836,target,123.2725,124.2728,0.0,13.0,13.0,13.0,1.0,0.35,0.0,0.0,right,,,,,0.9996283904295531
,,123,1,2025-12-20,posner,2023.2.2,Win32,163.9344262,5.221,6.7221,-0.362940276,0.009954058,1.0,0.0,0.0,0.4999,target,6.7223,7.7197,0.0,0.0,0.0,12.0,1.0,-0.35,180.0,0.0,left,,,,,0.5870795787837514
,,123,1,2025-12-20,posner,2023.2.2,Win32,163.9344262,7.7199,9.2597,0.343797856,-0.013016845,1.0,0.0,0.0,0.5395,target,9.2598,10.2584,0.0,1.0,1.0,9.0,1.0,0.35,0.0,0.0,right,,,,,0.4571774998487777
,,123,1,2025-12-20,posner,2023.2.2,Win32,163.9344262,10.2587,11.7219,-0.322358346,0.006125574,1.0,0.0,0.0,0.4626,target,11.7219,12.7233,0.0,2.0,2.0,2.0,1.0,-0.35,0.0,1.0,left,,,,,0.7094368400028052
,,123,1,2025-12-20,posner,2023.2.2,Win32,163.9344262,12.7236,14.1011,0.418836141,-0.013782542,1.0,0.0,0.0,0.3695,target,14.1012,15.0972,0.0,3.0,3.0,5.0,1.0,0.35,180.0,1.0,right,,,,,1.0148379397211402
,,123,1,2025-12-20,posner,2023.2.2,Win32,163.9344262,15.0975,16.4735,-0.415773354,0.000765697,1.0,0.0,0.0,0.3685,target,16.4736,17.4748,0.0,4.0,4.0,8.0,1.0,-0.35,180.0,0.0,left,,,,,1.0181182952498011
,,123,1,2025-12-20,posner,2023.2.2,Win32,163.9344262,17.475,19.2957,-0.394333844,0.0237366,1.0,0.0,0.0,0.8137,target,19.2957,20.2985,0.0,5.0,5.0,6.0,1.0,-0.35,0.0,1.0,left,,,,,0.4422959861100565
,,123,1,2025-12-20,posner,2023.2.2,Win32,163.9344262,20.2987,21.954,0.419601838,0.004594181,1.0,0.0,0.0,0.6537,target,21.954,22.9506,0.0,6.0,6.0,1.0,1.0,0.35,180.0,1.0,right,,,,,0.08256089847569659
,,123,1,2025-12-20,posner,2023.2.2,Win32,163.9344262,22.9508,24.5824,0.28101072,0.008422665,1.0,0.0,0.0,0.6266,target,24.5825,25.5804,0.0,7.0,7.0,3.0,1.0,0.35,180.0,1.0,right,,,,,0.17145853330240818
,,123,1,2025-12-20,posner,2023.2.2,Win32,163.9344262,25.5805,27.011,-0.264165391,-0.005359877,1.0,0.0,0.0,0.4269,target,27.0111,28.0066,0.0,8.0,8.0,10.0,1.0,-0.35,180.0,0.0,left,,,,,0.8265455323760013
,,123,1,2025-12-20,posner,2023.2.2,Win32,163.9344262,28.0068,29.4843,-0.324655436,0.009188361,1.0,0.0,0.0,0.4728,target,29.4843,30.4816,0.0,9.0,9.0,4.0,1.0,-0.35,0.0,1.0,left,,,,,0.6759772136104634
,,123,1,2025-12-20,posner,2023.2.2,Win32,163.9344262,30.4818,31.9299,0.296324655,-0.009188361,1.0,0.0,0.0,0.4446,target,31.93,32.9286,0.0,10.0,10.0,13.0,1.0,0.35,0.0,0.0,right,,,,,0.7684832395187023
,,123,1,2025-12-20,posner,2023.2.2,Win32,163.9344262,32.9288,34.5278,-0.253445636,-0.028330781,1.0,0.0,0.0,0.598,target,34.5279,35.5248,0.0,11.0,11.0,0.0,1.0,-0.35,0.0,1.0,left,,,,,0.26527670142211174
,,123,1,2025-12-20,posner,2023.2.2,Win32,163.9344262,35.525,36.987,0.296324655,-0.004594181,1.0,0.0,0.0,0.4553,target,36.987,37.9822,0.0,12.0,12.0,7.0,1.0,0.35,180.0,1.0,right,,,,,0.7333834353620302
,,123,1,2025-12-20,posner,2023.2.2,Win32,163.9344262,37.9825,39.4037,0.267228178,-0.006891271,1.0,0.0,0.0,0.4165,target,39.4037,40.4002,0.0,13.0,13.0,11.0,1.0,0.35,0.0,0.0,right,,,,,0.8606612298740752
,,1,1,2025-12-22,posner,2023.2.2,MacIntel,58.13953488,9.9538,11.5035,-0.328473471,0.031294964,1.0,0.0,0.0,0.5492,target,11.5036,12.5042,0.0,1.0,1.0,8.0,1.0,-0.35,180.0,0.0,left,,,,,0.42535805122076625
,,1,1,2025-12-22,posner,2023.2.2,MacIntel,58.13953488,12.5047,14.0206,-0.263848921,0.037927158,1.0,0.0,0.0,0.5004,target,14.0208,15.0208,0.0,2.0,2.0,12.0,1.0,-0.35,180.0,0.0,left,,,,,0.5854394010194212
,,1,1,2025-12-22,posner,2023.2.2,MacIntel,58.13953488,15.0212,16.504,0.385128147,0.024207509,1.0,0.0,0.0,0.4669,target,16.504,17.5041,0.0,3.0,3.0,7.0,1.0,0.35,180.0,1.0,right,,,,,0.695331311229563
,,1,1,2025-12-22,posner,2023.2.2,MacIntel,58.13953488,17.5046,18.9874,-0.427754047,-0.042125674,1.0,0.0,0.0,0.467,target,18.9875,19.9868,0.0,4.0,4.0,6.0,1.0,-0.35,0.0,1.0,left,,,,,0.6950032756766968
,,1,1,2025-12-22,posner,2023.2.2,MacIntel,58.13953488,19.9873,21.4206,0.368873651,-0.009004047,1.0,0.0,0.0,0.433,target,21.4207,22.421,0.0,5.0,5.0,13.0,1.0,0.35,0.0,0.0,right,,,,,0.8065353636511694
,,1,1,2025-12-22,posner,2023.2.2,MacIntel,58.13953488,22.4215,23.8533,-0.260808228,-0.007553957,1.0,0.0,0.0,0.4161,target,23.8534,24.8543,0.0,6.0,6.0,4.0,1.0,-0.35,0.0,1.0,left,,,,,0.8619733720855395
,,1,1,2025-12-22,posner,2023.2.2,MacIntel,58.13953488,24.8546,26.7044,0.293929856,-0.001888489,1.0,0.0,0.0,0.8344,target,26.7045,27.7044,0.0,7.0,7.0,9.0,1.0,0.35,0.0,0.0,right,,,,,0.5101993455533385
,,1,1,2025-12-22,posner,2023.2.2,MacIntel,58.13953488,27.7047,29.1539,-0.316507419,0.008582509,1.0,0.0,0.0,0.4326,target,29.1539,30.1546,0.0,8.0,8.0,10.0,1.0,-0.35,180.0,0.0,left,,,,,0.8078475058626339
,,1,1,2025-12-22,posner,2023.2.2,MacIntel,58.13953488,30.155,31.538,0.279681879,0.026708633,1.0,0.0,0.0,0.3666,target,31.538,32.5379,0.0,9.0,9.0,1.0,1.0,0.35,180.0,1.0,right,,,,,1.024350970754257
,,1,1,2025-12-22,posner,2023.2.2,MacIntel,58.13953488,32.5382,34.6545,-0.292389838,0.002799011,1.0,0.0,0.0,1.1008,target,34.6545,35.6546,0.0,10.0,10.0,0.0,1.0,-0.35,0.0,1.0,left,,,,,1.384086058388617
,,1,1,2025-12-22,posner,2023.2.2,MacIntel,58.13953488,35.6549,37.1211,0.321964928,-0.021734487,1.0,0.0,0.0,0.4498,target,37.1212,38.1212,0.0,11.0,11.0,5.0,1.0,0.35,180.0,1.0,right,,,,,0.7514253907696654
,,1,1,2025-12-22,posner,2023.2.2,MacIntel,58.13953488,38.1215,39.937,0.331890737,-0.008942221,1.0,0.0,0.0,0.7989,target,39.937,40.9371,0.0,12.0,12.0,11.0,1.0,0.35,0.0,0.0,right,,,,,0.3937467242858746
,,1,1,2025-12-22,posner,2023.2.2,MacIntel,58.13953488,40.9375,42.3213,-0.377017761,0.00692446,1.0,0.0,0.0,0.383,target,42.3213,43.3214,0.0,13.0,13.0,2.0,1.0,-0.35,0.0,1.0,left,,,,,0.9705531400842172
,,1,1,2025-12-18,posner,2023.2.2,Win32,60.24096386,3.2452,5.1594,0.381289476,-0.0165614,1.0,0.0,0.0,0.9003,target,5.1596,6.1599,0.0,0.0,0.0,1.0,1.0,0.35,180.0,1.0,right,,,,,0.7263747748920953
,,1,1,2025-12-18,posner,2023.2.2,Win32,60.24096386,6.1607,7.844,-0.343868521,0.048166885,1.0,0.0,0.0,0.6669,target,7.8441,8.8448,0.0,1.0,1.0,2.0,1.0,-0.35,0.0,1.0,left,,,,,0.03926020549737164
,,1,1,2025-12-18,posner,2023.2.2,Win32,60.24096386,8.845,10.3959,-0.329709213,0.021871034,1.0,0.0,0.0,0.55,target,10.3959,11.3963,0.0,2.0,2.0,6.0,1.0,-0.35,0.0,1.0,left,,,,,0.4227337667978374
,,1,1,2025-12-18,posner,2023.2.2,Win32,60.24096386,11.3966,13.3815,0.322629598,-0.012515834,1.0,0.0,0.0,0.9839,target,13.3816,14.3824,0.0,3.0,3.0,5.0,1.0,0.35,180.0,1.0,right,,,,,1.0006124970881514
,,1,1,2025-12-16,posner,2023.2.2,MacIntel,49.75124378,8.3241,10.1626,0.414103332,-0.001061629,1.0,0.0,0.0,0.8276,target,10.1627,11.1639,0.0,1.0,1.0,13.0,1.0,0.35,0.0,0.0,right,,,,,0.48789292795844386
,,1,1,2025-12-16,posner,2023.2.2,MacIntel,49.75124378,11.1646,12.9252,-0.261861662,0.013889645,1.0,0.0,0.0,0.7601,target,12.9254,13.9262,0.0,2.0,2.0,6.0,1.0,-0.35,0.0,1.0,left,,,,,0.2664689297738293
,,1,1,2025-12-16,posner,2023.2.2,MacIntel,49.75124378,13.927,15.5488,0.28819142,-0.026533918,1.0,0.0,0.0,0.621,target,15.5489,16.5497,0.0,3.0,3.0,11.0,1.0,0.35,0.0,0.0,right,,,,,0.1898285242629097
,,1,1,2025-12-16,posner,2023.2.2,MacIntel,49.75124378,16.5504,18.1707,-0.411714667,0.015454867,1.0,0.0,0.0,0.5997,target,18.1707,19.1722,0.0,4.0,4.0,12.0,1.0,-0.35,180.0,0.0,left,,,,,0.25970009702338803
,,1,1,2025-12-16,posner,2023.2.2,MacIntel,49.75124378,19.173,21.0141,-0.427387304,0.019544861,1.0,0.0,0.0,0.8212,target,21.0142,22.0074,0.0,5.0,5.0,8.0,1.0,-0.35,180.0,0.0,left,,,,,0.4668986525750139
,,1,1,2025-12-22,posner,2023.2.2,MacIntel,58.82352941,4.642,6.656,-0.259863946,0.03877551,1.0,0.0,0.0,1.0,target,6.657,7.657,0.0,1.0,1.0,12.0,1.0,-0.35,180.0,0.0,left,,,,,1.0534262210995926
,,1,1,2025-12-22,posner,2023.2.2,MacIntel,58.82352941,7.658,9.674,0.342857143,0.014285714,1.0,0.0,0.0,0.999,target,9.674,10.674,0.0,2.0,2.0,13.0,1.0,0.35,0.0,0.0,right,,,,,1.0501458655709317
,,1,1,2025-12-22,posner,2023.2.2,MacIntel,58.82352941,10.675,12.574,0.40952381,-0.052380952,1.0,0.0,0.0,0.883,target,12.574,13.574,0.0,3.0,3.0,7.0,1.0,0.35,180.0,1.0,right,,,,,0.6696246242462608
,,1,1,2025-12-22,posner,2023.2.2,MacIntel,58.82352941,13.575,15.441,-0.359183673,-0.004761905,1.0,0.0,0.0,0.85,target,15.441,16.44,0.0,4.0,4.0,8.0,1.0,-0.35,180.0,0.0,left,,,,,0.5613728918004492
,,1,1,2025-12-22,posner,2023.2.2,MacIntel,58.82352941,16.441,18.257,0.391836735,-0.031972789,1.0,0.0,0.0,0.8,target,18.257,19.257,0.0,5.0,5.0,3.0,1.0,0.35,180.0,1.0,right,,,,,0.3973551153674016
,,1,1,2025-12-22,posner,2023.2.2,MacIntel,58.82352941,19.258,20.774,-0.446258503,0.086394558,1.0,0.0,0.0,0.499,target,20.774,21.775,0.0,6.0,6.0,4.0,1.0,-0.35,0.0,1.0,left,,,,,0.5900318987595463
,,1,1,2025-12-22,posner,2023.2.2,MacIntel,58.82352941,21.775,23.258,0.31292517,-0.002040816,1.0,0.0,0.0,0.466,target,23.258,24.257,0.0,7.0,7.0,1.0,1.0,0.35,180.0,1.0,right,,,,,0.6982836312053579
,,1,1,2025-12-22,posner,2023.2.2,MacIntel,58.82352941,24.258,25.757,0.317006803,-0.003401361,1.0,0.0,0.0,0.483,target,25.757,26.758,0.0,8.0,8.0,5.0,1.0,0.35,180.0,1.0,right,,,,,0.6425175872181217
,,1,1,2025-12-22,posner,2023.2.2,MacIntel,58.82352941,26.758,28.208,0.342857143,-0.008843537,1.0,0.0,0.0,0.433,target,28.208,29.207,0.0,9.0,9.0,11.0,1.0,0.35,0.0,0.0,right,,,,,0.8065353636511694
,,1,1,2025-12-22,posner,2023.2.2,MacIntel,58.82352941,29.208,31.057,-0.272108844,0.019727891,1.0,0.0,0.0,0.832,target,31.057,32.058,0.0,10.0,10.0,6.0,1.0,-0.35,0.0,1.0,left,,,,,0.502326492284552
,,1,1,2025-12-22,posner,2023.2.2,MacIntel,58.82352941,37.592,39.025,-0.285714286,0.011564626,1.0,0.0,0.0,0.416,target,39.025,40.025,0.0,12.0,12.0,0.0,1.0,-0.35,0.0,1.0,left,,,,,0.8623014076384058
,,1,1,2025-12-15,posner,2023.2.2,Win32,30.03003003,4.1422,6.2431,0.278350515,-0.008505163,1.0,0.0,0.0,1.0941,target,6.2434,7.236,0.0,0.0,0.0,9.0,1.0,0.35,0.0,0.0,right,,,,,1.362107676346589
,,1,1,2025-12-15,posner,2023.2.2,Win32,30.03003003,12.0696,13.5886,0.351546455,-0.017783529,1.0,0.0,0.0,0.5153,target,13.5886,14.5861,0.0,2.0,2.0,3.0,1.0,0.35,180.0,1.0,right,,,,,0.5365621036423728
,,1,1,2025-12-15,posner,2023.2.2,Win32,30.03003003,14.5864,16.0826,0.35463927,-0.013659802,1.0,0.0,0.0,0.4851,target,16.0826,17.0729,0.0,3.0,3.0,1.0,1.0,0.35,180.0,1.0,right,,,,,0.6356288406079337
,,1,1,2025-12-15,posner,2023.2.2,Win32,30.03003003,17.0731,18.5037,-0.309278351,0.024484536,1.0,0.0,0.0,0.4268,target,18.5038,19.4883,0.0,4.0,4.0,0.0,1.0,-0.35,0.0,1.0,left,,,,,0.8268735679288673
,,1,1,2025-12-15,posner,2023.2.2,Win32,30.03003003,19.4885,20.9392,-0.367010294,0.007989667,1.0,0.0,0.0,0.432,target,20.9392,21.9356,0.0,5.0,5.0,6.0,1.0,-0.35,0.0,1.0,left,,,,,0.8098157191798304
,,1,1,2025-12-15,posner,2023.2.2,Win32,30.03003003,21.9358,23.9701,0.287628882,0.007989667,1.0,0.0,0.0,1.0266,target,23.9701,24.9583,0.0,6.0,6.0,7.0,1.0,0.35,180.0,1.0,right,,,,,1.140683678161974
,,1,1,2025-12-15,posner,2023.2.2,Win32,30.03003003,24.9585,26.7244,-0.407216495,0.039948454,1.0,0.0,0.0,0.7569,target,26.7244,27.7303,0.0,7.0,7.0,8.0,1.0,-0.35,180.0,0.0,left,,,,,0.2559717920821143
,,1,1,2025-12-15,posner,2023.2.2,Win32,30.03003003,27.7306,29.193,-0.299999984,0.003865979,1.0,0.0,0.0,0.4562,target,29.193,30.1957,0.0,8.0,8.0,4.0,1.0,-0.35,0.0,1.0,left,,,,,0.7304311153862353
,,1,1,2025-12-15,posner,2023.2.2,Win32,30.03003003,30.1959,31.8169,-0.268041237,-0.029123719,1.0,0.0,0.0,0.6129,target,31.8169,32.7982,0.0,9.0,9.0,10.0,1.0,-0.35,180.0,0.0,left,,,,,0.21639940404506344
,,1,1,2025-12-15,posner,2023.2.2,Win32,30.03003003,32.7985,34.2812,0.290721697,0.014175258,1.0,0.0,0.0,0.4788,target,34.2812,35.2775,0.0,10.0,10.0,11.0,1.0,0.35,0.0,0.0,right,,,,,0.6562950804384976
,,1,1,2025-12-15,posner,2023.2.2,Win32,30.03003003,35.2777,37.2976,-0.288659794,-0.011597938,1.0,0.0,0.0,1.0172,target,37.2976,38.2799,0.0,11.0,11.0,2.0,1.0,-0.35,0.0,1.0,left,,,,,1.1098483361925615
,,1,1,2025-12-15,posner,2023.2.2,Win32,30.03003003,38.28,40.3214,0.387628929,-0.026030944,1.0,0.0,0.0,1.0238,target,40.3214,41.309,0.0,12.0,12.0,5.0,1.0,0.35,180.0,1.0,right,,,,,1.1314986826817235
,,1,1,2025-12-15,posner,2023.2.2,Win32,30.03003003,41.3093,42.8481,0.429896876,0.001804116,1.0,0.0,0.0,0.5299,target,42.8481,43.8604,0.0,13.0,13.0,13.0,1.0,0.35,0.0,0.0,right,,,,,0.48866891292392267
,,1,1,2025-12-17,posner,2023.2.2,Win32,75.18796992,2.3665,3.769,0.292709467,0.033188248,1.0,0.0,0.0,0.3868,target,3.7691,4.7689,0.0,0.0,0.0,3.0,1.0,0.35,180.0,1.0,right,,,,,0.9580877890753057
,,1,1,2025-12-17,posner,2023.2.2,Win32,75.18796992,4.7692,6.0096,0.441784548,0.026659412,1.0,0.0,0.0,0.2273,target,6.0096,7.0094,0.0,1.0,1.0,5.0,1.0,0.35,180.0,1.0,right,,,,,1.481304495896728
,,1,1,2025-12-17,posner,2023.2.2,Win32,75.18796992,7.0097,8.57,-0.449401523,-0.049510337,1.0,0.0,0.0,0.552,target,8.57,9.57,0.0,2.0,2.0,12.0,1.0,-0.35,180.0,0.0,left,,,,,0.4161730557405155
,,1,1,2025-12-17,posner,2023.2.2,Win32,75.18796992,9.5702,11.0371,-0.371055495,-0.002720348,1.0,0.0,0.0,0.4535,target,11.0372,12.0373,0.0,3.0,3.0,2.0,1.0,-0.35,0.0,1.0,left,,,,,0.7392880753136198
,,1,1,2025-12-17,posner,2023.2.2,Win32,75.18796992,12.0374,13.5696,0.314472252,-0.02992383,1.0,0.0,0.0,0.5187,target,13.5696,14.5662,0.0,4.0,4.0,9.0,1.0,0.35,0.0,0.0,right,,,,,0.5254088948449254
,,1,1,2025-12-17,posner,2023.2.2,Win32,75.18796992,14.5664,16.14,-0.377584331,0.007072905,1.0,0.0,0.0,0.5554,target,16.1401,17.1319,0.0,5.0,5.0,6.0,1.0,-0.35,0.0,1.0,left,,,,,0.4050198469430684
,,1,1,2025-12-17,posner,2023.2.2,Win32,75.18796992,17.132,18.826,-0.429815016,0.025571273,1.0,0.0,0.0,0.6808,target,18.826,19.8258,0.0,6.0,6.0,10.0,1.0,-0.35,180.0,0.0,left,,,,,0.006336736351015362
,,1,1,2025-12-17,posner,2023.2.2,Win32,75.18796992,19.8259,21.2797,0.297062024,0.028835691,1.0,0.0,0.0,0.4403,target,21.2797,22.28,0.0,7.0,7.0,1.0,1.0,0.35,180.0,1.0,right,,,,,0.7825887682919443
,,1,1,2025-12-17,posner,2023.2.2,Win32,75.18796992,22.2801,23.8005,0.410228509,-0.002720348,1.0,0.0,0.0,0.5073,target,23.8005,24.7953,0.0,8.0,8.0,11.0,1.0,0.35,0.0,0.0,right,,,,,0.5628049478716605
,,1,1,2025-12-17,posner,2023.2.2,Win32,75.18796992,24.7955,26.094,-0.304678999,-0.008161045,1.0,0.0,0.0,0.2932,target,26.094,27.0941,0.0,9.0,9.0,4.0,1.0,-0.35,0.0,1.0,left,,,,,1.265129066557971
,,1,1,2025-12-17,posner,2023.2.2,Win32,75.18796992,27.0943,28.3361,-0.298150163,-0.001632209,1.0,0.0,0.0,0.2417,target,28.3361,29.3356,0.0,10.0,10.0,0.0,1.0,-0.35,0.0,1.0,left,,,,,1.4340673762840104
,,1,1,2025-12-17,posner,2023.2.2,Win32,75.18796992,29.3357,31.1621,0.388465724,-0.003808487,1.0,0.0,0.0,0.8138,target,31.1621,32.1619,0.0,11.0,11.0,7.0,1.0,0.35,180.0,1.0,right,,,,,0.44262402166292253
,,1,1,2025-12-17,posner,2023.2.2,Win32,75.18796992,32.1621,33.5894,-0.445048966,-0.022306855,1.0,0.0,0.0,0.4134,target,33.5894,34.5893,0.0,12.0,12.0,8.0,1.0,-0.35,180.0,0.0,left,,,,,0.8708303320129243
,,1,1,2025-12-17,posner,2023.2.2,Win32,75.18796992,34.5896,36.0966,0.329706202,0.036452666,1.0,0.0,0.0,0.4936,target,36.0967,37.0968,0.0,13.0,13.0,13.0,1.0,0.35,0.0,0.0,right,,,,,0.6077458186143155
,,1,1,2025-12-19,posner,2023.2.2,Win32,48.7804878,5.6659,7.0965,0.401446655,0.015370705,1.0,0.0,0.0,0.416,target,7.0969,8.0974,0.0,1.0,1.0,11.0,1.0,0.35,0.0,0.0,right,,,,,0.8623014076384058
,,1,1,2025-12-19,posner,2023.2.2,Win32,48.7804878,8.1189,9.5618,0.373719145,-0.013562387,1.0,0.0,0.0,0.4191,target,9.5622,10.555,0.0,2.0,2.0,3.0,1.0,0.35,180.0,1.0,right,,,,,0.8521323054995569
,,1,1,2025-12-19,posner,2023.2.2,Win32,48.7804878,10.5805,12.2484,-0.257986721,0.022603978,1.0,0.0,0.0,0.6467,target,12.2487,13.2435,0.0,3.0,3.0,0.0,1.0,-0.35,0.0,1.0,left,,,,,0.10552338717632294
,,1,1,2025-12-19,posner,2023.2.2,Win32,48.7804878,13.2689,15.014,0.250753503,-0.00994575,1.0,0.0,0.0,0.7011,target,15.0145,16.014,0.0,4.0,4.0,5.0,1.0,0.35,180.0,1.0,right,,,,,0.07292795358283272
,,1,1,2025-12-19,posner,2023.2.2,Win32,48.7804878,16.015,17.4721,-0.424352001,0.003315213,1.0,0.0,0.0,0.438,target,17.4724,18.4715,0.0,5.0,5.0,8.0,1.0,-0.35,180.0,0.0,left,,,,,0.7901335860078647
,,1,1,2025-12-19,posner,2023.2.2,Win32,48.7804878,18.4724,19.8673,0.294153141,-0.008740223,1.0,0.0,0.0,0.3745,target,19.8677,20.868,0.0,6.0,6.0,1.0,1.0,0.35,180.0,1.0,right,,,,,0.9984361620778354
,,1,1,2025-12-19,posner,2023.2.2,Win32,48.7804878,20.869,22.2832,-0.414707618,-0.015973496,1.0,0.0,0.0,0.3949,target,22.2834,23.2846,0.0,7.0,7.0,12.0,1.0,-0.35,180.0,0.0,left,,,,,0.931516909293152
,,1,1,2025-12-19,posner,2023.2.2,Win32,48.7804878,23.2852,24.8243,-0.35201927,-0.015973496,1.0,0.0,0.0,0.5205,target,24.8244,25.8245,0.0,8.0,8.0,2.0,1.0,-0.35,0.0,1.0,left,,,,,0.5195042548933358
,,1,1,2025-12-19,posner,2023.2.2,Win32,48.7804878,25.8248,27.6374,-0.333936088,-0.025617879,1.0,0.0,0.0,0.7921,target,27.6375,28.6381,0.0,9.0,9.0,10.0,1.0,-0.35,180.0,0.0,left,,,,,0.37144030669098
,,1,1,2025-12-19,posner,2023.2.2,Win32,48.7804878,28.6385,30.1176,-0.291741976,-0.002712477,1.0,0.0,0.0,0.4585,target,30.1179,31.1173,0.0,10.0,10.0,4.0,1.0,-0.35,0.0,1.0,left,,,,,0.722886297670315
,,1,1,2025-12-19,posner,2023.2.2,Win32,48.7804878,31.118,32.5336,0.311030741,0.020192869,1.0,0.0,0.0,0.3952,target,32.5338,33.5349,0.0,11.0,11.0,9.0,1.0,0.35,0.0,0.0,right,,,,,0.9305328026345536
,,1,1,2025-12-19,posner,2023.2.2,Win32,48.7804878,33.5358,35.0761,0.323086233,0.009342959,1.0,0.0,0.0,0.521,target,35.0763,36.0761,0.0,12.0,12.0,13.0,1.0,0.35,0.0,0.0,right,,,,,0.5178640771290053
,,1,1,2025-12-19,posner,2023.2.2,Win32,48.7804878,36.0771,37.8256,0.327908452,0.002109686,1.0,0.0,0.0,0.7297,target,37.8263,38.8257,0.0,13.0,13.0,7.0,1.0,0.35,180.0,1.0,right,,,,,0.1667461217025363
,,1,1,2025-12-17,posner,2023.2.2,Win32,19.96007984,10.0115,11.7935,-0.293309404,-0.007925743,1.0,0.0,0.0,0.7442,target,11.7936,12.7873,0.0,1.0,1.0,0.0,1.0,-0.35,0.0,1.0,left,,,,,0.21431127686812002
,,1,1,2025-12-17,posner,2023.2.2,Win32,19.96007984,12.7876,14.3731,0.351928375,-0.005667694,1.0,0.0,0.0,0.5534,target,14.3732,15.3707,0.0,2.0,2.0,5.0,1.0,0.35,180.0,1.0,right,,,,,0.41158055800039034
,,1,1,2025-12-17,posner,2023.2.2,Win32,19.96007984,15.3709,17.0789,0.359831503,-0.015828913,1.0,0.0,0.0,0.6701,target,17.079,18.0869,0.0,3.0,3.0,3.0,1.0,0.35,180.0,1.0,right,,,,,0.028763067805656645
,,1,1,2025-12-17,posner,2023.2.2,Win32,19.96007984,18.0872,20.3469,-0.387018472,-0.00453867,1.0,0.0,0.0,1.2101,target,20.347,21.3203,0.0,4.0,4.0,10.0,1.0,-0.35,180.0,0.0,left,,,,,1.7426289176712595
,,1,1,2025-12-17,posner,2023.2.2,Win32,19.96007984,21.3205,23.0045,-0.344115517,-0.038409399,1.0,0.0,0.0,0.6774,target,23.0047,23.9782,0.0,5.0,5.0,4.0,1.0,-0.35,0.0,1.0,left,,,,,0.004816472446431754
,,1,1,2025-12-17,posner,2023.2.2,Win32,19.96007984,23.9784,25.651,0.282493318,-0.00736121,1.0,0.0,0.0,0.6677,target,25.6512,26.63,0.0,6.0,6.0,7.0,1.0,0.35,180.0,1.0,right,,,,,0.03663592107444317
,,1,1,2025-12-17,posner,2023.2.2,Win32,19.96007984,26.6302,28.2677,-0.344115517,-0.029941737,1.0,0.0,0.0,0.6171,target,28.2678,29.248,0.0,7.0,7.0,12.0,1.0,-0.35,180.0,0.0,left,,,,,0.20262191082468747
,,1,1,2025-12-17,posner,2023.2.2,Win32,19.96007984,29.2483,31.0466,-0.341292957,-0.033893301,1.0,0.0,0.0,0.7796,target,31.0467,32.0263,0.0,8.0,8.0,2.0,1.0,-0.35,0.0,1.0,left,,,,,0.33043586258271784
,,1,1,2025-12-17,posner,2023.2.2,Win32,19.96007984,32.0265,33.6855,0.385799103,-0.013006331,1.0,0.0,0.0,0.626,target,33.6856,34.6728,0.0,9.0,9.0,1.0,1.0,0.35,180.0,1.0,right,,,,,0.17342674661960492
,,1,1,2025-12-17,posner,2023.2.2,Win32,19.96007984,34.6729,36.2817,-0.429356914,-0.021474034,1.0,0.0,0.0,0.5696,target,36.2819,37.2768,0.0,10.0,10.0,8.0,1.0,-0.35,180.0,0.0,left,,,,,0.35843879843608284
,,1,1,2025-12-17,posner,2023.2.2,Win32,19.96007984,37.2769,38.9501,-0.359357366,-0.022038567,1.0,0.0,0.0,0.6283,target,38.9502,39.9485,0.0,11.0,11.0,6.0,1.0,-0.35,0.0,1.0,left,,,,,0.1658819289036848
,,1,1,2025-12-17,posner,2023.2.2,Win32,19.96007984,39.9486,41.6084,0.318622095,-0.002845113,1.0,0.0,0.0,0.6271,target,41.6085,42.5999,0.0,12.0,12.0,9.0,1.0,0.35,0.0,0.0,right,,,,,0.1698183555380779
,,1,1,2025-12-17,posner,2023.2.2,Win32,19.96007984,42.6001,44.258,0.388057152,0.01126767,1.0,0.0,0.0,0.6242,target,44.2581,45.2476,0.0,13.0,13.0,11.0,1.0,0.35,0.0,0.0,right,,,,,0.1793313865711947
,,1,1,2025-12-21,posner,2023.2.2,MacIntel,60.24096386,4.0563,5.6341,0.388373615,0.004671144,1.0,0.0,0.0,0.5663,target,5.635,6.635,0.0,0.0,0.0,13.0,1.0,0.35,0.0,0.0,right,,,,,0.3692639716806639
,,1,1,2025-12-21,posner,2023.2.2,MacIntel,60.24096386,6.6357,8.9171,-0.282418989,0.000793758,1.0,0.0,0.0,1.267,target,8.918,9.9177,0.0,1.0,1.0,4.0,1.0,-0.35,0.0,1.0,left,,,,,1.9292811472520677
,,1,1,2025-12-21,posner,2023.2.2,MacIntel,60.24096386,9.9183,11.8663,-0.376900208,0.036541718,1.0,0.0,0.0,0.933,target,11.8669,12.8677,0.0,2.0,2.0,8.0,1.0,-0.35,180.0,0.0,left,,,,,0.8336424006793088
,,1,1,2025-12-21,posner,2023.2.2,MacIntel,60.24096386,12.8683,14.5493,-0.265230526,0.022547529,1.0,0.0,0.0,0.6658,target,14.5502,15.5499,0.0,3.0,3.0,0.0,1.0,-0.35,0.0,1.0,left,,,,,0.04286859657889903
,,1,1,2025-12-21,posner,2023.2.2,MacIntel,60.24096386,15.55,17.4004,0.387353756,-0.01930996,1.0,0.0,0.0,0.8333,target,17.4012,18.4008,0.0,4.0,4.0,11.0,1.0,0.35,0.0,0.0,right,,,,,0.5065909544718115
,,1,1,2025-12-21,posner,2023.2.2,MacIntel,60.24096386,18.4013,19.9665,0.317988955,-0.054827009,1.0,0.0,0.0,0.5496,target,19.9672,20.968,0.0,5.0,5.0,9.0,1.0,0.35,0.0,0.0,right,,,,,0.42404590900930206
,,1,1,2025-12-21,posner,2023.2.2,MacIntel,60.24096386,20.9685,22.3836,0.314092326,-0.047745728,1.0,0.0,0.0,0.3998,target,22.3842,23.3856,0.0,6.0,6.0,7.0,1.0,0.35,180.0,1.0,right,,,,,0.9154431672027132
,,1,1,2025-12-21,posner,2023.2.2,MacIntel,60.24096386,23.3864,24.8671,-0.294017472,-0.011766857,1.0,0.0,0.0,0.4669,target,24.8682,25.868,0.0,7.0,7.0,10.0,1.0,-0.35,180.0,0.0,left,,,,,0.695331311229563
,,1,1,2025-12-21,posner,2023.2.2,MacIntel,60.24096386,25.8686,27.6333,0.338968211,-0.000803379,1.0,0.0,0.0,0.7496,target,27.6338,28.6342,0.0,8.0,8.0,5.0,1.0,0.35,180.0,1.0,right,,,,,0.2320251967228894
,,1,1,2025-12-21,posner,2023.2.2,MacIntel,60.24096386,28.6346,30.0836,-0.351692388,-0.005868996,1.0,0.0,0.0,0.4338,target,30.0842,31.0848,0.0,9.0,9.0,2.0,1.0,-0.35,0.0,1.0,left,,,,,0.8039110792282406
,,1,1,2025-12-21,posner,2023.2.2,MacIntel,60.24096386,31.0854,32.7336,-0.396417026,0.011300223,1.0,0.0,0.0,0.6331,target,32.7345,33.7349,0.0,10.0,10.0,12.0,1.0,-0.35,180.0,0.0,left,,,,,0.15013622236611213
,,1,1,2025-12-21,posner,2023.2.2,MacIntel,60.24096386,33.7355,35.217,0.395772398,-0.0083994,1.0,0.0,0.0,0.4663,target,35.2176,36.2178,0.0,11.0,11.0,3.0,1.0,0.35,180.0,1.0,right,,,,,0.6972995245467596
,,1,1,2025-12-21,posner,2023.2.2,MacIntel,60.24096386,36.2181,37.6834,-0.353967826,-0.008250269,1.0,0.0,0.0,0.4491,target,37.6839,38.6847,0.0,12.0,12.0,6.0,1.0,-0.35,0.0,1.0,left,,,,,0.753721639639728
,,1,1,2025-12-21,posner,2023.2.2,MacIntel,60.24096386,38.685,40.2008,0.296615225,0.006528056,1.0,0.0,0.0,0.5001,target,40.2016,41.2016,0.0,13.0,13.0,1.0,1.0,0.35,180.0,1.0,right,,,,,0.5864235076780193
,,1,1,2025-12-20,posner,2023.2.2,Win32,59.88023952,9.5078,11.1729,-0.346031746,0.015343915,1.0,0.0,0.0,0.6499,target,11.173,12.1726,0.0,1.0,1.0,6.0,1.0,-0.35,0.0,1.0,left,,,,,0.09502624948460794
,,1,1,2025-12-20,posner,2023.2.2,Win32,59.88023952,12.173,13.7724,-0.324867725,0.017460317,1.0,0.0,0.0,0.5834,target,13.7725,14.7727,0.0,2.0,2.0,12.0,1.0,-0.35,180.0,0.0,left,,,,,0.31316989214056157
,,1,1,2025-12-20,posner,2023.2.2,Win32,59.88023952,14.7731,16.7725,0.344973545,0.020634921,1.0,0.0,0.0,0.9834,target,16.7725,17.7745,0.0,3.0,3.0,7.0,1.0,0.35,180.0,1.0,right,,,,,0.998972319323821
,,1,1,2025-12-20,posner,2023.2.2,Win32,59.88023952,17.7748,19.4557,-0.301587302,0.014285714,1.0,0.0,0.0,0.6666,target,19.4557,20.4551,0.0,4.0,4.0,0.0,1.0,-0.35,0.0,1.0,left,,,,,0.040244312155970186
,,1,1,2025-12-20,posner,2023.2.2,Win32,59.88023952,20.4554,22.1902,0.392592593,0.011111111,1.0,0.0,0.0,0.7167,target,22.1902,23.1883,0.0,5.0,5.0,13.0,1.0,0.35,0.0,0.0,right,,,,,0.12410149982994383
,,1,1,2025-12-19,posner,2023.2.2,MacIntel,59.88023952,5.1738,6.8174,0.314909427,0.014964412,1.0,0.0,0.0,0.6332,target,6.8175,7.8173,0.0,0.0,0.0,1.0,1.0,0.35,180.0,1.0,right,,,,,0.14980818681324606
,,1,1,2025-12-19,posner,2023.2.2,MacIntel,59.88023952,7.8179,9.4167,0.325005346,-0.011138349,1.0,0.0,0.0,0.5832,target,9.4167,10.417,0.0,1.0,1.0,7.0,1.0,0.35,180.0,1.0,right,,,,,0.31382596324629364
,,1,1,2025-12-19,posner,2023.2.2,MacIntel,59.88023952,10.4176,12.1835,-0.388097202,0.009947,1.0,0.0,0.0,0.7495,target,12.1837,13.1836,0.0,2.0,2.0,10.0,1.0,-0.35,180.0,0.0,left,,,,,0.23169716117002337
,,1,1,2025-12-19,posner,2023.2.2,MacIntel,59.88023952,13.1841,14.6837,0.38378238,-0.030562683,1.0,0.0,0.0,0.4834,target,14.6838,15.6836,0.0,3.0,3.0,5.0,1.0,0.35,180.0,1.0,right,,,,,0.6412054450066572
,,1,1,2025-12-19,posner,2023.2.2,MacIntel,59.88023952,15.6842,17.2003,0.340057582,0.003451857,1.0,0.0,0.0,0.5001,target,17.2004,18.2002,0.0,4.0,4.0,3.0,1.0,0.35,180.0,1.0,right,,,,,0.5864235076780193
,,1,1,2025-12-19,posner,2023.2.2,MacIntel,59.88023952,18.2006,19.967,-0.334341398,0.024296646,1.0,0.0,0.0,0.7498,target,19.967,20.967,0.0,5.0,5.0,12.0,1.0,-0.35,180.0,0.0,left,,,,,0.23268126782862153
,,1,1,2025-12-19,posner,2023.2.2,MacIntel,59.88023952,20.9675,22.5339,-0.433391373,0.016281769,1.0,0.0,0.0,0.55,target,22.534,23.5339,0.0,6.0,6.0,0.0,1.0,-0.35,0.0,1.0,left,,,,,0.4227337667978374
,,1,1,2025-12-19,posner,2023.2.2,MacIntel,59.88023952,23.5343,25.3338,0.281253818,-0.014479472,1.0,0.0,0.0,0.7833,target,25.3338,26.334,0.0,7.0,7.0,13.0,1.0,0.35,0.0,0.0,right,,,,,0.34257317803876347
,,1,1,2025-12-19,posner,2023.2.2,MacIntel,59.88023952,26.3345,27.8338,-0.384202407,0.001317357,1.0,0.0,0.0,0.4832,target,27.8339,28.8341,0.0,8.0,8.0,4.0,1.0,-0.35,0.0,1.0,left,,,,,0.6418615161123894
,,1,1,2025-12-19,posner,2023.2.2,MacIntel,59.88023952,28.8345,30.3835,-0.382659763,-0.004921951,1.0,0.0,0.0,0.533,target,30.3835,31.3838,0.0,9.0,9.0,6.0,1.0,-0.35,0.0,1.0,left,,,,,0.47849981078507375
,,1,1,2025-12-19,posner,2023.2.2,MacIntel,59.88023952,31.3843,33.1504,0.429160557,-0.034629307,1.0,0.0,0.0,0.7498,target,33.1505,34.1498,0.0,10.0,10.0,9.0,1.0,0.35,0.0,0.0,right,,,,,0.23268126782862153
,,1,1,2025-12-19,posner,2023.2.2,MacIntel,59.88023952,34.1503,35.8336,-0.255655089,-0.015113331,1.0,0.0,0.0,0.6663,target,35.8336,36.8338,0.0,11.0,11.0,2.0,1.0,-0.35,0.0,1.0,left,,,,,0.04122841881456836
,,1,1,2025-12-19,posner,2023.2.2,MacIntel,59.88023952,36.8343,38.5669,-0.293568243,0.012948283,1.0,0.0,0.0,0.7168,target,38.567,39.5673,0.0,12.0,12.0,8.0,1.0,-0.35,180.0,0.0,left,,,,,0.12442953538280989
,,1,1,2025-12-19,posner,2023.2.2,MacIntel,59.88023952,39.5676,41.0508,0.308517381,-0.007086999,1.0,0.0,0.0,0.4668,target,41.0509,42.0505,0.0,13.0,13.0,11.0,1.0,0.35,0.0,0.0,right,,,,,0.6956593467824291
,,1,1,2025-12-14,posner,2023.2.2,MacIntel,52.63157895,5.146,6.939,-0.30834512,0.028995757,1.0,0.0,0.0,0.779,target,6.939,7.943,0.0,1.0,1.0,2.0,1.0,-0.35,0.0,1.0,left,,,,,0.32846764926552147
,,1,1,2025-12-14,posner,2023.2.2,MacIntel,52.63157895,7.944,9.358,-0.377652051,0.004950495,1.0,0.0,0.0,0.398,target,9.358,10.359,0.0,2.0,2.0,10.0,1.0,-0.35,180.0,0.0,left,,,,,0.9213478071543029
,,1,1,2025-12-14,posner,2023.2.2,MacIntel,52.63157895,10.359,11.674,0.41301273,0.030410184,1.0,0.0,0.0,0.298,target,11.674,12.675,0.0,3.0,3.0,1.0,1.0,0.35,180.0,1.0,right,,,,,1.2493833600203985
,,1,1,2025-12-14,posner,2023.2.2,MacIntel,52.63157895,12.676,14.087,0.398868458,0.016265912,1.0,0.0,0.0,0.396,target,14.087,15.091,0.0,4.0,4.0,13.0,1.0,0.35,0.0,0.0,right,,,,,0.9279085182116248
,,1,1,2025-12-14,posner,2023.2.2,MacIntel,52.63157895,15.091,16.435,-0.377652051,0.058698727,1.0,0.0,0.0,0.328,target,16.435,17.44,0.0,5.0,5.0,6.0,1.0,-0.35,0.0,1.0,left,,,,,1.1509726941605698
,,1,1,2025-12-14,posner,2023.2.2,MacIntel,52.63157895,17.441,18.77,-0.386138614,0.088401697,1.0,0.0,0.0,0.313,target,18.77,19.773,0.0,6.0,6.0,12.0,1.0,-0.35,180.0,0.0,left,,,,,1.2001780270904843
,,1,1,2025-12-14,posner,2023.2.2,MacIntel,52.63157895,19.773,21.086,0.417256011,0.0572843,1.0,0.0,0.0,0.308,target,21.086,22.089,0.0,7.0,7.0,3.0,1.0,0.35,180.0,1.0,right,,,,,1.216579804733789
,,1,1,2025-12-14,posner,2023.2.2,MacIntel,52.63157895,24.155,25.483,0.397454031,0.031824611,1.0,0.0,0.0,0.313,target,25.483,26.487,0.0,9.0,9.0,11.0,1.0,0.35,0.0,0.0,right,,,,,1.2001780270904843
,,1,1,2025-12-14,posner,2023.2.2,MacIntel,52.63157895,26.488,27.852,0.394625177,0.03748232,1.0,0.0,0.0,0.348,target,27.852,28.853,0.0,10.0,10.0,7.0,1.0,0.35,180.0,1.0,right,,,,,1.0853655835873508
,,1,1,2025-12-14,posner,2023.2.2,MacIntel,52.63157895,28.854,30.133,-0.379066478,0.064356436,1.0,0.0,0.0,0.264,target,30.133,31.136,0.0,11.0,11.0,4.0,1.0,-0.35,0.0,1.0,left,,,,,1.360915447994871
,,1,1,2025-12-14,posner,2023.2.2,MacIntel,52.63157895,31.136,32.399,-0.381895332,0.071428571,1.0,0.0,0.0,0.246,target,32.399,33.401,0.0,12.0,12.0,8.0,1.0,-0.35,180.0,0.0,left,,,,,1.4199618475107683
,,1,1,2025-12-14,posner,2023.2.2,MacIntel,52.63157895,33.402,34.714,-0.38330976,0.084158416,1.0,0.0,0.0,0.296,target,34.714,35.717,0.0,13.0,13.0,0.0,1.0,-0.35,0.0,1.0,left,,,,,1.2559440710777205
,,1,1,2025-12-18,posner,2023.2.2,MacIntel,62.5,8.587,10.284,-0.346820809,0.04566474,1.0,0.0,0.0,0.683,target,10.284,11.285,0.0,1.0,1.0,8.0,1.0,-0.35,180.0,0.0,left,,,,,0.013553518514069763
,,1,1,2025-12-18,posner,2023.2.2,MacIntel,62.5,11.286,13.428,0.410404624,0.038728324,1.0,0.0,0.0,1.125,target,13.428,14.427,0.0,2.0,2.0,5.0,1.0,0.35,180.0,1.0,right,,,,,1.4634706621822122
,,1,1,2025-12-18,posner,2023.2.2,MacIntel,62.5,14.428,15.959,-0.374566474,-0.022543353,1.0,0.0,0.0,0.514,target,15.959,16.958,0.0,3.0,3.0,10.0,1.0,-0.35,180.0,0.0,left,,,,,0.540826565829632
,,1,1,2025-12-18,posner,2023.2.2,MacIntel,62.5,16.959,18.546,-0.397687861,-0.049132948,1.0,0.0,0.0,0.586,target,18.547,19.548,0.0,4.0,4.0,0.0,1.0,-0.35,0.0,1.0,left,,,,,0.30464096776604327
,,1,1,2025-12-18,posner,2023.2.2,MacIntel,62.5,19.549,21.114,-0.332947977,-0.015606936,1.0,0.0,0.0,0.55,target,21.114,22.114,0.0,5.0,5.0,4.0,1.0,-0.35,0.0,1.0,left,,,,,0.4227337667978374
,,1,1,2025-12-18,posner,2023.2.2,MacIntel,62.5,22.115,23.713,0.29017341,-0.066473988,1.0,0.0,0.0,0.582,target,23.713,24.713,0.0,6.0,6.0,1.0,1.0,0.35,180.0,1.0,right,,,,,0.3177623898806871
,,1,1,2025-12-18,posner,2023.2.2,MacIntel,62.5,24.714,26.18,-0.276300578,-0.005202312,1.0,0.0,0.0,0.466,target,26.18,27.18,0.0,7.0,7.0,2.0,1.0,-0.35,0.0,1.0,left,,,,,0.6982836312053579
,,1,1,2025-12-18,posner,2023.2.2,MacIntel,62.5,27.18,29.063,0.286705202,-0.00867052,1.0,0.0,0.0,0.883,target,29.063,30.06,0.0,8.0,8.0,11.0,1.0,0.35,0.0,0.0,right,,,,,0.6696246242462608
,,1,1,2025-12-18,posner,2023.2.2,MacIntel,62.5,30.06,31.697,0.415028902,-0.019075145,1.0,0.0,0.0,0.62,target,31.697,32.697,0.0,9.0,9.0,13.0,1.0,0.35,0.0,0.0,right,,,,,0.19310887979157065
,,1,1,2025-12-18,posner,2023.2.2,MacIntel,62.5,32.698,34.28,-0.402312139,-0.017919075,1.0,0.0,0.0,0.566,target,34.28,35.28,0.0,10.0,10.0,12.0,1.0,-0.35,180.0,0.0,left,,,,,0.37024807833926243
,,1,1,2025-12-18,posner,2023.2.2,MacIntel,62.5,35.28,36.963,-0.280924855,-0.006358382,1.0,0.0,0.0,0.666,target,36.963,37.964,0.0,11.0,11.0,6.0,1.0,-0.35,0.0,1.0,left,,,,,0.04221252547316654
,,1,1,2025-12-18,posner,2023.2.2,MacIntel,62.5,37.964,39.563,0.38265896,0.029479769,1.0,0.0,0.0,0.583,target,39.564,40.564,0.0,12.0,12.0,9.0,1.0,0.35,0.0,0.0,right,,,,,0.31448203435202615
,,1,1,2025-12-18,posner,2023.2.2,MacIntel,62.5,40.565,42.03,0.349132948,0.010982659,1.0,0.0,0.0,0.451,target,42.03,43.03,0.0,13.0,13.0,7.0,1.0,0.35,180.0,1.0,right,,,,,0.7474889641352722
,,1,1,2025-12-22,posner,2023.2.2,MacIntel,58.47953216,3.7691,5.4651,0.34674443,0.019059779,1.0,0.0,0.0,0.6832,target,5.4655,6.4653,0.0,0.0,0.0,5.0,1.0,0.35,180.0,1.0,right,,,,,0.014209589619801882
,,1,1,2025-12-22,posner,2023.2.2,MacIntel,58.47953216,6.4658,8.0824,0.310230234,-0.007796293,1.0,0.0,0.0,0.6007,target,8.0825,9.0831,0.0,1.0,1.0,1.0,1.0,0.35,180.0,1.0,right,,,,,0.25641974149472707
,,1,1,2025-12-22,posner,2023.2.2,MacIntel,58.47953216,9.0833,10.6658,-0.355077582,-0.031196379,1.0,0.0,0.0,0.5669,target,10.6661,11.6668,0.0,2.0,2.0,4.0,1.0,-0.35,0.0,1.0,left,,,,,0.36729575836346756
,,1,1,2025-12-22,posner,2023.2.2,MacIntel,58.47953216,11.6672,13.316,-0.374548961,-0.033658906,1.0,0.0,0.0,0.634,target,13.3162,14.3163,0.0,3.0,3.0,2.0,1.0,-0.35,0.0,1.0,left,,,,,0.14718390239031723
,,1,1,2025-12-22,posner,2023.2.2,MacIntel,58.47953216,14.3167,15.8993,0.37508276,0.037017822,1.0,0.0,0.0,0.5661,target,15.8996,16.8994,0.0,4.0,4.0,3.0,1.0,0.35,180.0,1.0,right,,,,,0.369920042786396
,,1,1,2025-12-22,posner,2023.2.2,MacIntel,58.47953216,16.8997,18.6496,-0.379532076,-0.028482814,1.0,0.0,0.0,0.7332,target,18.6498,19.6498,0.0,5.0,5.0,12.0,1.0,-0.35,180.0,0.0,left,,,,,0.17822736605284947
,,1,1,2025-12-22,posner,2023.2.2,MacIntel,58.47953216,19.65,21.5332,-0.323545036,-5.35351e-05,1.0,0.0,0.0,0.8663,target,21.5333,22.5345,0.0,6.0,6.0,10.0,1.0,-0.35,180.0,0.0,left,,,,,0.6148426869176227
,,1,1,2025-12-22,posner,2023.2.2,MacIntel,58.47953216,22.5348,24.3343,-0.293793975,0.014907966,1.0,0.0,0.0,0.7841,target,24.3345,25.3341,0.0,7.0,7.0,0.0,1.0,-0.35,0.0,1.0,left,,,,,0.3451974624616923
,,1,1,2025-12-22,posner,2023.2.2,MacIntel,58.47953216,25.3344,26.9348,0.351727502,-0.018133648,1.0,0.0,0.0,0.5838,target,26.935,27.9349,0.0,8.0,8.0,7.0,1.0,0.35,180.0,1.0,right,,,,,0.3118577499290973
,,1,1,2025-12-22,posner,2023.2.2,MacIntel,58.47953216,27.9353,29.652,-0.304407712,-0.018370116,1.0,0.0,0.0,0.701,target,29.6523,30.6517,0.0,9.0,9.0,8.0,1.0,-0.35,180.0,0.0,left,,,,,0.07259991802996667
,,1,1,2025-12-22,posner,2023.2.2,MacIntel,58.47953216,30.6519,32.2682,0.322650802,-0.026398352,1.0,0.0,0.0,0.5999,target,32.2683,33.2685,0.0,10.0,10.0,13.0,1.0,0.35,0.0,0.0,right,,,,,0.2590440259176559
,,1,1,2025-12-22,posner,2023.2.2,MacIntel,58.47953216,33.2687,34.9017,0.318226011,0.001405533,1.0,0.0,0.0,0.6165,target,34.9019,35.902,0.0,11.0,11.0,11.0,1.0,0.35,0.0,0.0,right,,,,,0.20459012414188382
,,1,1,2025-12-22,posner,2023.2.2,MacIntel,58.47953216,35.9022,37.5523,0.274984414,-0.018663266,1.0,0.0,0.0,0.6333,target,37.5525,38.5525,0.0,12.0,12.0,9.0,1.0,0.35,0.0,0.0,right,,,,,0.14948015126038
,,1,1,2025-12-22,posner,2023.2.2,MacIntel,58.47953216,38.5527,40.103,-0.374460641,-0.018494859,1.0,0.0,0.0,0.55,target,40.1032,41.1036,0.0,13.0,13.0,6.0,1.0,-0.35,0.0,1.0,left,,,,,0.4227337667978374
,,1,1,2025-12-16,posner,2023.2.2,MacIntel,59.88023952,0.8446,2.539,-0.292660362,-0.006950155,1.0,0.0,0.0,0.6828,target,2.5391,3.5392,0.0,0.0,0.0,4.0,1.0,-0.35,0.0,1.0,left,,,,,0.01289744740833728
,,1,1,2025-12-16,posner,2023.2.2,MacIntel,59.88023952,8.4901,10.0224,-0.322631122,-0.02324333,1.0,0.0,0.0,0.5163,target,10.0225,11.0229,0.0,2.0,2.0,0.0,1.0,-0.35,0.0,1.0,left,,,,,0.5332817481137119
,,1,1,2025-12-16,posner,2023.2.2,MacIntel,59.88023952,11.0237,12.4562,-0.32505254,-0.013414885,1.0,0.0,0.0,0.4173,target,12.4563,13.4559,0.0,3.0,3.0,2.0,1.0,-0.35,0.0,1.0,left,,,,,0.8580369454511464
,,1,1,2025-12-16,posner,2023.2.2,MacIntel,59.88023952,21.1727,22.9726,-0.331540113,0.024842379,1.0,0.0,0.0,0.7833,target,22.9726,23.9716,0.0,5.0,5.0,12.0,1.0,-0.35,180.0,0.0,left,,,,,0.34257317803876347
,,1,1,2025-12-16,posner,2023.2.2,MacIntel,59.88023952,23.9718,25.7885,0.32748538,0.024071409,1.0,0.0,0.0,0.799,target,25.7885,26.7895,0.0,6.0,6.0,11.0,1.0,0.35,0.0,0.0,right,,,,,0.39407475983874063
,,1,1,2025-12-16,posner,2023.2.2,MacIntel,59.88023952,32.8223,34.4389,0.376896016,0.003346583,1.0,0.0,0.0,0.6157,target,34.4389,35.4389,0.0,8.0,8.0,9.0,1.0,0.35,0.0,0.0,right,,,,,0.20721440856481269
,,1,1,2025-12-16,posner,2023.2.2,MacIntel,59.88023952,35.4391,37.2731,0.36583973,0.01376896,1.0,0.0,0.0,0.8333,target,37.2731,38.2733,0.0,9.0,9.0,5.0,1.0,0.35,180.0,1.0,right,,,,,0.5065909544718115
,,1,1,2025-12-16,posner,2023.2.2,MacIntel,59.88023952,38.2734,39.6891,0.350631625,0.021164565,1.0,0.0,0.0,0.3991,target,39.6891,40.6892,0.0,10.0,10.0,3.0,1.0,0.35,180.0,1.0,right,,,,,0.9177394160727759
,,1,1,2025-12-16,posner,2023.2.2,MacIntel,59.88023952,40.6894,42.1567,0.332219709,0.034036915,1.0,0.0,0.0,0.4666,target,42.1567,43.1558,0.0,11.0,11.0,7.0,1.0,0.35,180.0,1.0,right,,,,,0.6963154178881613
,,1,1,2025-12-16,posner,2023.2.2,MacIntel,59.88023952,43.156,45.0059,0.347296464,-0.009828445,1.0,0.0,0.0,0.8325,target,45.0059,46.0059,0.0,12.0,12.0,1.0,1.0,0.35,180.0,1.0,right,,,,,0.5039666700488826
,,1,1,2025-12-16,posner,2023.2.2,MacIntel,59.88023952,46.0061,47.5727,-0.364760371,-0.018411915,1.0,0.0,0.0,0.5656,target,47.5727,48.5728,0.0,13.0,13.0,8.0,1.0,-0.35,180.0,0.0,left,,,,,0.3715602205507267
,,1,1,2025-12-16,posner,2023.2.2,Win32,46.94835681,0.9956,2.4682,0.294153141,-0.025617879,1.0,0.0,0.0,0.4543,target,2.4685,3.4536,0.0,0.0,0.0,9.0,1.0,0.35,0.0,0.0,right,,,,,0.7366637908906911
,,1,1,2025-12-16,posner,2023.2.2,Win32,46.94835681,3.4544,5.2035,0.277275541,0.020192869,1.0,0.0,0.0,0.7351,target,5.2038,6.1996,0.0,1.0,1.0,3.0,1.0,0.35,180.0,1.0,right,,,,,0.18446004155730533
,,1,1,2025-12-16,posner,2023.2.2,Win32,46.94835681,6.226,7.7191,0.443640821,-0.008740223,1.0,0.0,0.0,0.4784,target,7.7195,8.719,0.0,2.0,2.0,13.0,1.0,0.35,0.0,0.0,right,,,,,0.6576072226499621
,,1,1,2025-12-16,posner,2023.2.2,Win32,46.94835681,8.7442,10.0786,0.432790911,-0.00391806,1.0,0.0,0.0,0.3141,target,10.0789,11.0742,0.0,3.0,3.0,7.0,1.0,0.35,180.0,1.0,right,,,,,1.1965696360089573
,,1,1,2025-12-16,posner,2023.2.2,Win32,46.94835681,11.095,12.8081,-0.415913201,0.005726323,1.0,0.0,0.0,0.6891,target,12.8084,13.8028,0.0,4.0,4.0,8.0,1.0,-0.35,180.0,0.0,left,,,,,0.033563687238901574
,,1,1,2025-12-16,posner,2023.2.2,Win32,46.94835681,13.8034,15.2391,0.329113924,0.000904159,1.0,0.0,0.0,0.416,target,15.2394,16.2396,0.0,5.0,5.0,1.0,1.0,0.35,180.0,1.0,right,,,,,0.8623014076384058
,,1,1,2025-12-16,posner,2023.2.2,Win32,46.94835681,16.2407,17.6988,-0.379746835,0.037070524,1.0,0.0,0.0,0.4385,target,17.6992,18.6993,0.0,6.0,6.0,4.0,1.0,-0.35,0.0,1.0,left,,,,,0.7884934082435342
,,1,1,2025-12-16,posner,2023.2.2,Win32,46.94835681,18.7,20.2392,-0.358047016,0.018987342,1.0,0.0,0.0,0.5203,target,20.2393,21.2414,0.0,7.0,7.0,10.0,1.0,-0.35,180.0,0.0,left,,,,,0.520160325999068
,,1,1,2025-12-16,posner,2023.2.2,Win32,46.94835681,21.2424,22.7188,0.253164557,-0.014767969,1.0,0.0,0.0,0.4575,target,22.7194,23.7191,0.0,8.0,8.0,5.0,1.0,0.35,180.0,1.0,right,,,,,0.726166653198976
,,1,1,2025-12-16,posner,2023.2.2,Win32,46.94835681,23.7203,25.1777,-0.26039783,0.009342959,1.0,0.0,0.0,0.4378,target,25.178,26.1769,0.0,9.0,9.0,0.0,1.0,-0.35,0.0,1.0,left,,,,,0.7907896571135968
,,1,1,2025-12-16,posner,2023.2.2,Win32,46.94835681,26.1777,27.7184,-0.28812534,0.003315213,1.0,0.0,0.0,0.5203,target,27.7187,28.7191,0.0,10.0,10.0,12.0,1.0,-0.35,180.0,0.0,left,,,,,0.520160325999068
,,1,1,2025-12-16,posner,2023.2.2,Win32,46.94835681,28.7199,30.199,-0.418324255,0.004520796,1.0,0.0,0.0,0.4589,target,30.1992,31.1983,0.0,11.0,11.0,2.0,1.0,-0.35,0.0,1.0,left,,,,,0.7215741554588507
,,1,1,2025-12-16,posner,2023.2.2,Win32,46.94835681,31.1993,32.656,0.312236324,-0.00391806,1.0,0.0,0.0,0.4371,target,32.6563,33.656,0.0,12.0,12.0,11.0,1.0,0.35,0.0,0.0,right,,,,,0.7930859059836596
,,1,1,2025-12-16,posner,2023.2.2,Win32,46.94835681,33.6565,35.1771,-0.285714286,0.021398396,1.0,0.0,0.0,0.5001,target,35.1775,36.1772,0.0,13.0,13.0,6.0,1.0,-0.35,0.0,1.0,left,,,,,0.5864235076780193
,,1,1,2025-12-15,posner,2023.2.2,Win32,144.9275362,9.4452,11.1986,-0.350584307,-0.012520868,1.0,0.0,0.0,0.7499,target,11.1988,12.1984,0.0,0.0,0.0,2.0,1.0,-0.35,0.0,1.0,left,,,,,0.2330093033814876
,,1,1,2025-12-15,posner,2023.2.2,Win32,144.9275362,12.1986,13.7677,-0.328881469,-0.004173623,1.0,0.0,0.0,0.5625,target,13.7678,14.7677,0.0,1.0,1.0,4.0,1.0,-0.35,0.0,1.0,left,,,,,0.3817293226895756
,,1,1,2025-12-15,posner,2023.2.2,Win32,144.9275362,14.7678,16.5038,0.350584307,0.004173623,1.0,0.0,0.0,0.7288,target,16.5038,17.5037,0.0,2.0,2.0,5.0,1.0,0.35,180.0,1.0,right,,,,,0.1637938017267414
,,1,1,2025-12-15,posner,2023.2.2,Win32,144.9275362,17.504,19.2398,0.342237062,-0.022537563,1.0,0.0,0.0,0.7292,target,19.2399,20.2398,0.0,3.0,3.0,3.0,1.0,0.35,180.0,1.0,right,,,,,0.16510594393820563
,,1,1,2025-12-15,posner,2023.2.2,Win32,144.9275362,20.24,21.7605,-0.360601002,0.04590985,1.0,0.0,0.0,0.5137,target,21.7606,22.7605,0.0,4.0,4.0,6.0,1.0,-0.35,0.0,1.0,left,,,,,0.5418106724882301
,,1,1,2025-12-15,posner,2023.2.2,Win32,144.9275362,22.7607,24.2674,0.432387312,-0.004173623,1.0,0.0,0.0,0.5,target,24.2675,25.2674,0.0,5.0,5.0,7.0,1.0,0.35,180.0,1.0,right,,,,,0.5867515432308854
,,1,1,2025-12-15,posner,2023.2.2,Win32,144.9275362,25.2675,26.8438,-0.277128548,0.050918197,1.0,0.0,0.0,0.5695,target,26.8439,27.8438,0.0,6.0,6.0,12.0,1.0,-0.35,180.0,0.0,left,,,,,0.35876683398894893
,,1,1,2025-12-15,posner,2023.2.2,Win32,144.9275362,27.8439,29.5034,0.377295492,-0.040901503,1.0,0.0,0.0,0.6528,target,29.5035,30.5035,0.0,7.0,7.0,11.0,1.0,0.35,0.0,0.0,right,,,,,0.08551321845149112
,,1,1,2025-12-15,posner,2023.2.2,Win32,144.9275362,30.5036,32.1075,0.34557596,-0.072621035,1.0,0.0,0.0,0.5973,target,32.1075,33.1075,0.0,8.0,8.0,13.0,1.0,0.35,0.0,0.0,right,,,,,0.26757295029217415
,,1,1,2025-12-15,posner,2023.2.2,Win32,144.9275362,33.1077,34.6906,-0.402337229,0.017529215,1.0,0.0,0.0,0.5763,target,34.6907,35.6907,0.0,9.0,9.0,0.0,1.0,-0.35,0.0,1.0,left,,,,,0.33646041639405433
,,1,1,2025-12-15,posner,2023.2.2,Win32,144.9275362,35.6908,37.2462,0.350584307,0.000834725,1.0,0.0,0.0,0.5485,target,37.2463,38.2462,0.0,10.0,10.0,9.0,1.0,0.35,0.0,0.0,right,,,,,0.42765430009082905
,,1,1,2025-12-15,posner,2023.2.2,Win32,144.9275362,38.2464,39.8571,-0.424040067,-0.007512521,1.0,0.0,0.0,0.6041,target,39.8573,40.8575,0.0,11.0,11.0,10.0,1.0,-0.35,180.0,0.0,left,,,,,0.24526653269727994
,,1,1,2025-12-15,posner,2023.2.2,Win32,144.9275362,40.8577,42.5031,-0.387312187,0.005843072,1.0,0.0,0.0,0.639,target,42.5031,43.503,0.0,12.0,12.0,8.0,1.0,-0.35,180.0,0.0,left,,,,,0.13078212474701242
,,1,1,2025-12-15,posner,2023.2.2,Win32,144.9275362,43.5031,44.9751,0.355592654,-0.004173623,1.0,0.0,0.0,0.4652,target,44.9751,45.9753,0.0,13.0,13.0,1.0,1.0,0.35,180.0,1.0,right,,,,,0.7009079156282867
,,1,1,2025-12-21,posner,2023.2.2,Win32,59.000531,5.4489,7.0375,-0.348863636,-0.002272727,1.0,0.0,0.0,0.5865,target,7.0376,8.0377,0.0,0.0,0.0,10.0,1.0,-0.35,180.0,0.0,left,,,,,0.3030007900017126
,,1,1,2025-12-21,posner,2023.2.2,Win32,59.000531,8.0381,9.6444,-0.423863636,0.023863636,1.0,0.0,0.0,0.6029,target,9.6444,10.6386,0.0,1.0,1.0,8.0,1.0,-0.35,180.0,0.0,left,,,,,0.24920295933167302
,,1,1,2025-12-21,posner,2023.2.2,Win32,59.000531,10.6388,12.3246,0.423863636,-0.002272727,1.0,0.0,0.0,0.6804,target,12.3247,13.3229,0.0,2.0,2.0,1.0,1.0,0.35,180.0,1.0,right,,,,,0.0050245941395511235
,,1,1,2025-12-21,posner,2023.2.2,Win32,59.000531,13.3232,14.9155,-0.304545455,0.025,1.0,0.0,0.0,0.5738,target,14.9156,15.9146,0.0,3.0,3.0,0.0,1.0,-0.35,0.0,1.0,left,,,,,0.34466130521570687
,,1,1,2025-12-21,posner,2023.2.2,Win32,59.000531,15.9153,17.4958,-0.321590909,-0.003409091,1.0,0.0,0.0,0.5636,target,17.4958,18.4963,0.0,4.0,4.0,6.0,1.0,-0.35,0.0,1.0,left,,,,,0.3781209316080486
,,1,1,2025-12-21,posner,2023.2.2,Win32,59.000531,18.5122,19.9347,0.410227273,-0.0625,1.0,0.0,0.0,0.4199,target,19.9347,20.9419,0.0,5.0,5.0,3.0,1.0,0.35,180.0,1.0,right,,,,,0.8495080210766279
,,1,1,2025-12-21,posner,2023.2.2,Win32,59.000531,20.9422,22.9175,0.440909091,-0.017045455,1.0,0.0,0.0,0.9673,target,22.9175,23.9199,0.0,6.0,6.0,9.0,1.0,0.35,0.0,0.0,right,,,,,0.9461585953123796
,,1,1,2025-12-21,posner,2023.2.2,Win32,59.000531,23.9203,25.6613,0.384090909,-0.034090909,1.0,0.0,0.0,0.7377,target,25.6613,26.655,0.0,7.0,7.0,13.0,1.0,0.35,0.0,0.0,right,,,,,0.19298896593182396
,,1,1,2025-12-21,posner,2023.2.2,Win32,59.000531,26.6799,28.0919,0.295454545,-0.032954545,1.0,0.0,0.0,0.3976,target,28.092,29.0932,0.0,8.0,8.0,5.0,1.0,0.35,180.0,1.0,right,,,,,0.9226599493657672
,,1,1,2025-12-21,posner,2023.2.2,Win32,59.000531,29.0935,30.6276,0.401136364,-0.061363636,1.0,0.0,0.0,0.5151,target,30.6276,31.6297,0.0,9.0,9.0,11.0,1.0,0.35,0.0,0.0,right,,,,,0.537218174748105
,,1,1,2025-12-21,posner,2023.2.2,Win32,59.000531,31.63,33.1352,0.294318182,0.013636364,1.0,0.0,0.0,0.4894,target,33.1352,34.1354,0.0,10.0,10.0,7.0,1.0,0.35,180.0,1.0,right,,,,,0.6215233118346916
,,1,1,2025-12-21,posner,2023.2.2,Win32,59.000531,34.1357,35.6323,-0.375,0.030681818,1.0,0.0,0.0,0.4854,target,35.6323,36.627,0.0,11.0,11.0,2.0,1.0,-0.35,0.0,1.0,left,,,,,0.6346447339493353
,,1,1,2025-12-21,posner,2023.2.2,Win32,59.000531,36.6385,38.1616,-0.336363636,0.065909091,1.0,0.0,0.0,0.5167,target,38.1616,39.1545,0.0,12.0,12.0,12.0,1.0,-0.35,180.0,0.0,left,,,,,0.5319696059022473
,,1,1,2025-12-21,posner,2023.2.2,Win32,59.000531,39.1549,40.821,-0.261363636,-0.010227273,1.0,0.0,0.0,0.6643,target,40.8211,41.8137,0.0,13.0,13.0,4.0,1.0,-0.35,0.0,1.0,left,,,,,0.04778912987189028
,,1,1,2025-12-17,posner,2023.2.2,Win32,58.82352941,4.7406,6.3209,0.391786903,0.002774695,1.0,0.0,0.0,0.5661,target,6.321,7.3201,0.0,0.0,0.0,13.0,1.0,0.35,0.0,0.0,right,,,,,0.369920042786396
,,1,1,2025-12-17,posner,2023.2.2,Win32,58.82352941,7.3207,9.036,0.35627081,-0.000554939,1.0,0.0,0.0,0.6997,target,9.0361,10.0359,0.0,1.0,1.0,3.0,1.0,0.35,180.0,1.0,right,,,,,0.06833545584270752
,,1,1,2025-12-17,posner,2023.2.2,Win32,58.82352941,10.0363,11.619,-0.305216426,0.008324084,1.0,0.0,0.0,0.5657,target,11.619,12.6187,0.0,2.0,2.0,10.0,1.0,-0.35,180.0,0.0,left,,,,,0.37123218499786065
,,1,1,2025-12-17,posner,2023.2.2,Win32,58.82352941,12.6191,14.1015,-0.371809101,0.027192009,1.0,0.0,0.0,0.4664,target,14.1015,15.101,0.0,3.0,3.0,2.0,1.0,-0.35,0.0,1.0,left,,,,,0.6969714889938936
,,1,1,2025-12-17,posner,2023.2.2,Win32,58.82352941,15.1013,16.6342,-0.296337403,0.021642619,1.0,0.0,0.0,0.5165,target,16.6343,17.6339,0.0,4.0,4.0,0.0,1.0,-0.35,0.0,1.0,left,,,,,0.5326256770079797
,,1,1,2025-12-17,posner,2023.2.2,Win32,58.82352941,17.6343,19.7829,-0.305216426,-0.030521643,1.0,0.0,0.0,1.1327,target,19.7829,20.7831,0.0,5.0,5.0,6.0,1.0,-0.35,0.0,1.0,left,,,,,1.4887293997529016
,,1,1,2025-12-17,posner,2023.2.2,Win32,58.82352941,20.7842,22.3323,-0.259711432,0.004994451,1.0,0.0,0.0,0.5329,target,22.3323,23.3324,0.0,6.0,6.0,4.0,1.0,-0.35,0.0,1.0,left,,,,,0.4788278463379398
,,1,1,2025-12-17,posner,2023.2.2,Win32,58.82352941,23.3333,24.8813,-0.423973363,0.007214206,1.0,0.0,0.0,0.5332,target,24.8813,25.881,0.0,7.0,7.0,8.0,1.0,-0.35,180.0,0.0,left,,,,,0.47784373967934163
,,1,1,2025-12-17,posner,2023.2.2,Win32,58.82352941,25.8813,27.5804,0.334073252,-0.056048835,1.0,0.0,0.0,0.683,target,27.5805,28.5806,0.0,8.0,8.0,1.0,1.0,0.35,180.0,1.0,right,,,,,0.013553518514069763
,,1,1,2025-12-17,posner,2023.2.2,Win32,58.82352941,28.5817,30.2459,0.295227525,0.018312986,1.0,0.0,0.0,0.6498,target,30.2459,31.2459,0.0,9.0,9.0,7.0,1.0,0.35,180.0,1.0,right,,,,,0.09535428503747401
,,1,1,2025-12-17,posner,2023.2.2,Win32,58.82352941,31.2463,32.762,-0.405105438,0.014983352,1.0,0.0,0.0,0.4999,target,32.762,33.7617,0.0,10.0,10.0,12.0,1.0,-0.35,180.0,0.0,left,,,,,0.5870795787837514
,,1,1,2025-12-17,posner,2023.2.2,Win32,58.82352941,33.762,35.2278,0.322974473,-0.008324084,1.0,0.0,0.0,0.4498,target,35.2279,36.228,0.0,11.0,11.0,9.0,1.0,0.35,0.0,0.0,right,,,,,0.7514253907696654
,,1,1,2025-12-17,posner,2023.2.2,Win32,58.82352941,36.2289,38.1767,0.334073252,0.028301887,1.0,0.0,0.0,0.9328,target,38.1767,39.1764,0.0,12.0,12.0,5.0,1.0,0.35,180.0,1.0,right,,,,,0.8329863295735763
,,1,1,2025-12-17,posner,2023.2.2,Win32,58.82352941,39.1768,40.6762,0.440621532,-0.01054384,1.0,0.0,0.0,0.4835,target,40.6763,41.6757,0.0,13.0,13.0,11.0,1.0,0.35,0.0,0.0,right,,,,,0.6408774094537912
,,1,1,2025-12-17,posner,2023.2.2,MacIntel,31.25,1.566,3.895,-0.286394558,-0.040136054,1.0,0.0,0.0,1.299,target,3.895,4.896,0.0,0.0,0.0,10.0,1.0,-0.35,180.0,0.0,left,,,,,2.034252524169218
,,1,1,2025-12-17,posner,2023.2.2,MacIntel,31.25,4.897,6.596,-0.282312925,-0.03877551,1.0,0.0,0.0,0.667,target,6.596,7.597,0.0,1.0,1.0,0.0,1.0,-0.35,0.0,1.0,left,,,,,0.03893216994450558
,,1,1,2025-12-17,posner,2023.2.2,MacIntel,31.25,7.597,9.297,-0.295918367,0.002040816,1.0,0.0,0.0,0.699,target,9.297,10.298,0.0,2.0,2.0,12.0,1.0,-0.35,180.0,0.0,left,,,,,0.06603920697264475
,,1,1,2025-12-17,posner,2023.2.2,MacIntel,31.25,10.298,11.765,-0.276870748,-0.015646259,1.0,0.0,0.0,0.467,target,11.765,12.765,0.0,3.0,3.0,4.0,1.0,-0.35,0.0,1.0,left,,,,,0.6950032756766968
,,1,1,2025-12-17,posner,2023.2.2,MacIntel,31.25,12.765,14.598,-0.334013605,0.011564626,1.0,0.0,0.0,0.8,target,14.598,15.598,0.0,4.0,4.0,8.0,1.0,-0.35,180.0,0.0,left,,,,,0.3973551153674016
,,1,1,2025-12-17,posner,2023.2.2,MacIntel,31.25,15.598,17.165,-0.298639456,-0.010204082,1.0,0.0,0.0,0.534,target,17.165,18.164,0.0,5.0,5.0,6.0,1.0,-0.35,0.0,1.0,left,,,,,0.4752194552564128
,,1,1,2025-12-17,posner,2023.2.2,MacIntel,31.25,18.164,19.73,0.334013605,0.034693878,1.0,0.0,0.0,0.566,target,19.73,20.73,0.0,6.0,6.0,9.0,1.0,0.35,0.0,0.0,right,,,,,0.37024807833926243
,,1,1,2025-12-17,posner,2023.2.2,MacIntel,31.25,20.731,22.398,0.291836735,-0.031972789,1.0,0.0,0.0,0.667,target,22.398,23.398,0.0,7.0,7.0,1.0,1.0,0.35,180.0,1.0,right,,,,,0.03893216994450558
,,1,1,2025-12-17,posner,2023.2.2,MacIntel,31.25,23.398,24.998,0.346258503,0.052380952,1.0,0.0,0.0,0.568,target,24.998,25.998,0.0,8.0,8.0,5.0,1.0,0.35,180.0,1.0,right,,,,,0.3636873672819405
,,1,1,2025-12-17,posner,2023.2.2,MacIntel,31.25,25.998,27.498,-0.29047619,-0.023809524,1.0,0.0,0.0,0.5,target,27.498,28.498,0.0,9.0,9.0,2.0,1.0,-0.35,0.0,1.0,left,,,,,0.5867515432308854
,,1,1,2025-12-17,posner,2023.2.2,MacIntel,31.25,28.498,29.997,0.317687075,-0.01292517,1.0,0.0,0.0,0.466,target,29.998,30.999,0.0,10.0,10.0,13.0,1.0,0.35,0.0,0.0,right,,,,,0.6982836312053579
,,1,1,2025-12-17,posner,2023.2.2,MacIntel,31.25,30.999,32.498,0.342176871,-0.008843537,1.0,0.0,0.0,0.467,target,32.499,33.498,0.0,11.0,11.0,11.0,1.0,0.35,0.0,0.0,right,,,,,0.6950032756766968
,,1,1,2025-12-17,posner,2023.2.2,MacIntel,31.25,33.498,34.897,0.338095238,-0.007482993,1.0,0.0,0.0,0.399,target,34.897,35.898,0.0,12.0,12.0,3.0,1.0,0.35,180.0,1.0,right,,,,,0.9180674516256419
,,1,1,2025-12-17,posner,2023.2.2,MacIntel,31.25,35.898,37.297,0.321768707,-0.010204082,1.0,0.0,0.0,0.399,target,37.297,38.298,0.0,13.0,13.0,7.0,1.0,0.35,180.0,1.0,right,,,,,0.9180674516256419
,,1,1,2025-12-21,posner,2023.2.2,Win32,89.28571429,1.8675,3.3872,0.427835052,-0.009572901,1.0,0.0,0.0,0.5111,target,3.3874,4.3871,0.0,0.0,0.0,7.0,1.0,0.35,180.0,1.0,right,,,,,0.5503395968627488
,,1,1,2025-12-21,posner,2023.2.2,Win32,89.28571429,4.3875,6.1869,0.382916053,-0.006627393,1.0,0.0,0.0,0.7888,target,6.187,7.1869,0.0,1.0,1.0,5.0,1.0,0.35,180.0,1.0,right,,,,,0.36061513344639856
,,1,1,2025-12-21,posner,2023.2.2,Win32,89.28571429,7.1871,8.6535,0.266568483,0.001472754,1.0,0.0,0.0,0.4555,target,8.6537,9.6537,0.0,2.0,2.0,9.0,1.0,0.35,0.0,0.0,right,,,,,0.7327273642562979
,,1,1,2025-12-21,posner,2023.2.2,Win32,89.28571429,9.654,11.6314,0.303387334,0.039764359,1.0,0.0,0.0,0.9667,target,11.6314,12.6314,0.0,3.0,3.0,11.0,1.0,0.35,0.0,0.0,right,,,,,0.9441903819951829
,,1,1,2025-12-21,posner,2023.2.2,Win32,89.28571429,12.6317,14.0645,-0.421944035,0.058910162,1.0,0.0,0.0,0.422,target,14.0668,15.0645,0.0,4.0,4.0,8.0,1.0,-0.35,180.0,0.0,left,,,,,0.84261927446644
,,1,1,2025-12-21,posner,2023.2.2,Win32,89.28571429,15.0647,16.5424,-0.379970545,0.000736377,1.0,0.0,0.0,0.4667,target,16.5425,17.5424,0.0,5.0,5.0,0.0,1.0,-0.35,0.0,1.0,left,,,,,0.6959873823352952
,,1,1,2025-12-21,posner,2023.2.2,Win32,89.28571429,17.5426,19.0201,-0.315905744,0.035346097,1.0,0.0,0.0,0.4665,target,19.0201,20.0203,0.0,6.0,6.0,12.0,1.0,-0.35,180.0,0.0,left,,,,,0.6966434534410273
,,1,1,2025-12-21,posner,2023.2.2,Win32,89.28571429,20.0206,21.4533,-0.415316642,0.022091311,1.0,0.0,0.0,0.4221,target,21.4533,22.4533,0.0,7.0,7.0,2.0,1.0,-0.35,0.0,1.0,left,,,,,0.8422912389135739
,,1,1,2025-12-21,posner,2023.2.2,Win32,89.28571429,22.4536,24.0867,0.288659794,-0.005891016,1.0,0.0,0.0,0.622,target,24.0869,25.0867,0.0,8.0,8.0,13.0,1.0,0.35,0.0,0.0,right,,,,,0.18654816873424873
,,1,1,2025-12-21,posner,2023.2.2,Win32,89.28571429,25.087,26.5424,-0.268777614,-0.005891016,1.0,0.0,0.0,0.4447,target,26.5425,27.542,0.0,9.0,9.0,4.0,1.0,-0.35,0.0,1.0,left,,,,,0.7681552039658363
,,1,1,2025-12-21,posner,2023.2.2,Win32,89.28571429,27.5422,28.9532,0.268777614,0.008836524,1.0,0.0,0.0,0.3997,target,28.9532,29.9533,0.0,10.0,10.0,3.0,1.0,0.35,180.0,1.0,right,,,,,0.9157712027555793
,,1,1,2025-12-21,posner,2023.2.2,Win32,89.28571429,29.9535,31.2977,-0.342415317,-0.028718704,1.0,0.0,0.0,0.3333,target,31.2977,32.2977,0.0,11.0,11.0,6.0,1.0,-0.35,0.0,1.0,left,,,,,1.1335868098586668
,,1,1,2025-12-21,posner,2023.2.2,Win32,89.28571429,32.2979,33.6754,0.436671576,-0.016200295,1.0,0.0,0.0,0.3667,target,33.6755,34.6754,0.0,12.0,12.0,1.0,1.0,0.35,180.0,1.0,right,,,,,1.0240229352013908
,,1,1,2025-12-21,posner,2023.2.2,Win32,89.28571429,34.6756,36.1753,-0.31443299,-0.011782032,1.0,0.0,0.0,0.4887,target,36.1754,37.1753,0.0,13.0,13.0,10.0,1.0,-0.35,180.0,0.0,left,,,,,0.6238195607047541
,,1,1,2025-12-15,posner,2023.2.2,Win32,60.24096386,32.5769,34.509,0.29525332,-0.015763416,1.0,0.0,0.0,0.9161,target,34.509,35.5089,0.0,1.0,1.0,7.0,1.0,0.35,180.0,1.0,right,,,,,0.7782043922449385
,,1,1,2025-12-15,posner,2023.2.2,Win32,60.24096386,35.5091,37.1428,-0.308359858,0.00194826,1.0,0.0,0.0,0.617,target,37.1429,38.1415,0.0,2.0,2.0,4.0,1.0,-0.35,0.0,1.0,left,,,,,0.20294994637755354
,,1,1,2025-12-17,posner,2023.2.2,Win32,60.09615385,1.542,3.738,-0.364153627,-0.012091038,1.0,0.0,0.0,1.183,target,3.738,4.737,0.0,0.0,0.0,6.0,1.0,-0.35,0.0,1.0,left,,,,,1.6537312828445478
,,1,1,2025-12-17,posner,2023.2.2,Win32,60.09615385,4.738,6.535,0.342531988,-0.018918902,1.0,0.0,0.0,0.783,target,6.535,7.534,0.0,1.0,1.0,1.0,1.0,0.35,180.0,1.0,right,,,,,0.3415890713801653
,,1,1,2025-12-17,posner,2023.2.2,Win32,60.09615385,7.535,9.416,0.295874822,-0.02119487,1.0,0.0,0.0,0.865,target,9.416,10.415,0.0,2.0,2.0,11.0,1.0,0.35,0.0,0.0,right,,,,,0.6105782247303636
,,1,1,2025-12-17,posner,2023.2.2,Win32,60.09615385,10.416,12.147,0.327738299,-0.022332877,1.0,0.0,0.0,0.716,target,12.147,13.146,0.0,3.0,3.0,7.0,1.0,0.35,180.0,1.0,right,,,,,0.12180525095988105
,,1,1,2025-12-17,posner,2023.2.2,Win32,60.09615385,13.147,15.178,-0.381223329,0.001564731,1.0,0.0,0.0,1.016,target,15.179,16.177,0.0,4.0,4.0,4.0,1.0,-0.35,0.0,1.0,left,,,,,1.105911909558168
,,1,1,2025-12-17,posner,2023.2.2,Win32,60.09615385,16.178,17.976,-0.291322884,-0.000711238,1.0,0.0,0.0,0.783,target,17.976,18.975,0.0,5.0,5.0,10.0,1.0,-0.35,180.0,0.0,left,,,,,0.3415890713801653
,,1,1,2025-12-17,posner,2023.2.2,Win32,60.09615385,18.975,20.84,0.304978698,-0.008677107,1.0,0.0,0.0,0.849,target,20.84,21.84,0.0,6.0,6.0,9.0,1.0,0.35,0.0,0.0,right,,,,,0.5580925362717882
,,1,1,2025-12-17,posner,2023.2.2,Win32,60.09615385,21.84,23.638,0.32660025,-0.006401138,1.0,0.0,0.0,0.783,target,23.638,24.637,0.0,7.0,7.0,3.0,1.0,0.35,180.0,1.0,right,,,,,0.3415890713801653
,,1,1,2025-12-17,posner,2023.2.2,Win32,60.09615385,24.637,26.553,-0.367567559,0.004978663,1.0,0.0,0.0,0.898,target,26.553,27.551,0.0,8.0,8.0,12.0,1.0,-0.35,180.0,0.0,left,,,,,0.7188299571761753
,,1,1,2025-12-17,posner,2023.2.2,Win32,60.09615385,27.551,29.35,-0.307254623,0.011806526,1.0,0.0,0.0,0.783,target,29.35,30.349,0.0,9.0,9.0,8.0,1.0,-0.35,180.0,0.0,left,,,,,0.3415890713801653
,,1,1,2025-12-17,posner,2023.2.2,Win32,60.09615385,30.349,32.264,0.353911789,-0.01550497,1.0,0.0,0.0,0.899,target,32.264,33.263,0.0,10.0,10.0,13.0,1.0,0.35,0.0,0.0,right,,,,,0.7221103127048362
,,1,1,2025-12-17,posner,2023.2.2,Win32,60.09615385,33.263,35.012,0.337980051,-0.018918902,1.0,0.0,0.0,0.733,target,35.012,36.011,0.0,11.0,11.0,5.0,1.0,0.35,180.0,1.0,right,,,,,0.17757129494711735
,,1,1,2025-12-17,posner,2023.2.2,Win32,60.09615385,36.011,37.71,-0.355049752,-0.008677107,1.0,0.0,0.0,0.683,target,37.71,38.709,0.0,12.0,12.0,0.0,1.0,-0.35,0.0,1.0,left,,,,,0.013553518514069763
,,1,1,2025-12-17,posner,2023.2.2,Win32,60.09615385,38.71,40.357,-0.337980051,-0.002987206,1.0,0.0,0.0,0.633,target,40.357,41.357,0.0,13.0,13.0,2.0,1.0,-0.35,0.0,1.0,left,,,,,0.1504642579189782
,,1,1,2025-12-20,posner,2023.2.2,MacIntel,60.60606061,8.2566,10.0707,-0.348768442,0.011538057,1.0,0.0,0.0,0.7985,target,10.0708,11.071,0.0,1.0,1.0,2.0,1.0,-0.35,0.0,1.0,left,,,,,0.39243458207441
,,1,1,2025-12-20,posner,2023.2.2,MacIntel,60.60606061,11.0717,12.853,-0.381136116,-0.00363002,1.0,0.0,0.0,0.766,target,12.8531,13.8523,0.0,2.0,2.0,8.0,1.0,-0.35,180.0,0.0,left,,,,,0.285823027392929
,,1,1,2025-12-20,posner,2023.2.2,MacIntel,60.60606061,13.8528,15.6178,0.413866457,0.022630155,1.0,0.0,0.0,0.7489,target,15.6179,16.6172,0.0,3.0,3.0,13.0,1.0,0.35,0.0,0.0,right,,,,,0.22972894785282663
,,1,1,2025-12-20,posner,2023.2.2,MacIntel,60.60606061,16.6178,18.3662,-0.362039897,0.015282618,1.0,0.0,0.0,0.7337,target,18.3662,19.3648,0.0,4.0,4.0,0.0,1.0,-0.35,0.0,1.0,left,,,,,0.17986754381718012
,,1,1,2025-12-20,posner,2023.2.2,MacIntel,60.60606061,19.3652,21.131,-0.365665349,-0.047410867,1.0,0.0,0.0,0.7502,target,21.131,22.1307,0.0,5.0,5.0,4.0,1.0,-0.35,0.0,1.0,left,,,,,0.23399341004008578
,,1,1,2025-12-20,posner,2023.2.2,MacIntel,60.60606061,22.1311,23.8288,0.439778841,0.038370171,1.0,0.0,0.0,0.682,target,23.8288,24.8291,0.0,6.0,6.0,11.0,1.0,0.35,0.0,0.0,right,,,,,0.010273162985408804
,,1,1,2025-12-20,posner,2023.2.2,MacIntel,60.60606061,24.8298,26.3935,0.371746936,0.060639561,1.0,0.0,0.0,0.549,target,26.3936,27.3938,0.0,7.0,7.0,3.0,1.0,0.35,180.0,1.0,right,,,,,0.4260141223264984
,,1,1,2025-12-20,posner,2023.2.2,MacIntel,60.60606061,27.3942,28.8585,-0.347570508,-0.004877257,1.0,0.0,0.0,0.4495,target,28.8586,29.8584,0.0,8.0,8.0,6.0,1.0,-0.35,0.0,1.0,left,,,,,0.7524094974282637
,,1,1,2025-12-20,posner,2023.2.2,MacIntel,60.60606061,29.8588,31.4575,0.394096914,0.050635497,1.0,0.0,0.0,0.5839,target,31.4575,32.4568,0.0,9.0,9.0,5.0,1.0,0.35,180.0,1.0,right,,,,,0.3115297143762312
,,1,1,2025-12-20,posner,2023.2.2,MacIntel,60.60606061,32.4572,34.0049,-0.358193805,0.013720118,1.0,0.0,0.0,0.5327,target,34.0049,35.005,0.0,10.0,10.0,10.0,1.0,-0.35,180.0,0.0,left,,,,,0.47948391744367225
,,1,1,2025-12-20,posner,2023.2.2,MacIntel,60.60606061,35.0055,36.887,0.344095671,0.015927252,1.0,0.0,0.0,0.8658,target,36.887,37.8858,0.0,11.0,11.0,9.0,1.0,0.35,0.0,0.0,right,,,,,0.6132025091532924
,,1,1,2025-12-20,posner,2023.2.2,MacIntel,60.60606061,37.8864,39.468,0.28105688,-0.012173188,1.0,0.0,0.0,0.5658,target,39.4681,40.4683,0.0,12.0,12.0,7.0,1.0,0.35,180.0,1.0,right,,,,,0.37090414944499456
,,1,1,2025-12-20,posner,2023.2.2,MacIntel,60.60606061,40.4689,41.9505,-0.287855977,-0.044057369,1.0,0.0,0.0,0.4673,target,41.9505,42.9496,0.0,13.0,13.0,12.0,1.0,-0.35,180.0,0.0,left,,,,,0.6940191690180987
,,1,1,2025-12-20,posner,2023.2.2,Win32,243.902439,11.3942,13.7009,-0.328877005,-0.018360093,1.0,0.0,0.0,1.3039,target,13.701,14.7007,0.0,1.0,1.0,2.0,1.0,-0.35,0.0,1.0,left,,,,,2.0503262662596575
,,1,1,2025-12-20,posner,2023.2.2,Win32,243.902439,14.7011,16.481,-0.325311899,-0.005525868,1.0,0.0,0.0,0.7795,target,16.4811,17.4826,0.0,2.0,2.0,4.0,1.0,-0.35,0.0,1.0,left,,,,,0.33010782702985175
,,1,1,2025-12-20,posner,2023.2.2,Win32,243.902439,17.4831,19.1996,-0.343850267,-0.021925134,1.0,0.0,0.0,0.7154,target,19.1997,20.1961,0.0,3.0,3.0,12.0,1.0,-0.35,180.0,0.0,left,,,,,0.11983703764268469
,,1,1,2025-12-20,posner,2023.2.2,Win32,243.902439,20.1965,21.7804,0.339215773,0.002317247,1.0,0.0,0.0,0.5804,target,21.7804,22.7782,0.0,4.0,4.0,1.0,1.0,0.35,180.0,1.0,right,,,,,0.3230109587265444
,,1,1,2025-12-20,posner,2023.2.2,Win32,243.902439,22.7784,24.4276,-0.271122995,-0.009090909,1.0,0.0,0.0,0.6455,target,24.4277,25.4283,0.0,5.0,5.0,8.0,1.0,-0.35,180.0,0.0,left,,,,,0.10945981381071639
,,1,1,2025-12-20,posner,2023.2.2,Win32,243.902439,25.4285,26.9601,-0.325311899,-0.013368984,1.0,0.0,0.0,0.5279,target,26.9601,27.9616,0.0,6.0,6.0,0.0,1.0,-0.35,0.0,1.0,left,,,,,0.4952296239812446
,,1,1,2025-12-20,posner,2023.2.2,Win32,243.902439,27.9618,29.6862,-0.316042781,-0.004099865,1.0,0.0,0.0,0.7217,target,29.6862,30.6853,0.0,7.0,7.0,6.0,1.0,-0.35,0.0,1.0,left,,,,,0.14050327747324862
,,1,1,2025-12-20,posner,2023.2.2,Win32,243.902439,30.6854,32.2511,-0.311764706,-0.011942981,1.0,0.0,0.0,0.5619,target,32.2511,33.2461,0.0,8.0,8.0,10.0,1.0,-0.35,180.0,0.0,left,,,,,0.38369753600677237
,,1,1,2025-12-20,posner,2023.2.2,Win32,243.902439,33.2463,34.8399,0.309982218,-0.039037433,1.0,0.0,0.0,0.5895,target,34.8399,35.841,0.0,9.0,9.0,7.0,1.0,0.35,180.0,1.0,right,,,,,0.2931597234157297
,,1,1,2025-12-20,posner,2023.2.2,Win32,243.902439,35.8411,37.3069,0.404099865,-0.004099865,1.0,0.0,0.0,0.4637,target,37.307,38.3054,0.0,10.0,10.0,5.0,1.0,0.35,180.0,1.0,right,,,,,0.705828448921278
,,1,1,2025-12-20,posner,2023.2.2,Win32,243.902439,38.3058,39.9646,0.312121256,-0.012656015,1.0,0.0,0.0,0.6558,target,39.9646,40.9643,0.0,11.0,11.0,13.0,1.0,0.35,0.0,0.0,right,,,,,0.07567215186550826
